green,red,IR,acc_x,acc_y,acc_z,sample_index
125751,190726,257720,-3.0472595810999996,-7.6785677234,5.198407098500001,1
126116,190856,257834,-3.0999016782999997,-7.668996433,5.1673004047,2
126328,190970,257891,-3.134597606,-7.6773713121,5.099104960599999,3
126349,191024,257870,-3.0747770410000004,-7.737191877099999,5.1469614126,4
126539,191049,257885,-3.1680971224,-7.8352976037,5.087140847600001,5
126838,191092,257927,-3.1022945009000003,-7.8065837325,5.1266224204999995,6
127041,191160,257972,-3.0604201053999995,-7.6809605460000006,5.1577291143,7
127224,191316,258009,-3.0472595810999996,-7.5984081663000005,5.071587500700001,8
127662,191408,258129,-3.1250263156,-7.7922267969000005,5.0799623797999995,9
128066,191535,258148,-3.1489545415999998,-7.585247642000001,5.251049195699999,10
128350,191621,258175,-3.1980074049,-7.8699935314,5.1110690735999995,11
128226,191653,258242,-3.1178478478000002,-7.8221370794,4.9447679029,12
127145,191360,258099,-3.0520452262999997,-7.7802626839,5.0979085493,13
125871,190943,257806,-3.0412775246,-7.721638530200001,5.1996035098,14
125182,190671,257679,-2.9647072014,-7.7718878047999995,5.181657340299999,15
125127,190589,257639,-3.0460631697999996,-7.800601675999999,5.084748025,16
125095,190601,257642,-2.9742784918,-7.7120672398000005,5.102694194500001,17
125324,190642,257715,-3.0903303879,-7.7862447404,5.0536413312,18
125849,190785,257735,-2.9730820805000002,-7.819744256799999,5.1876393968,19
126258,190932,257831,-3.0197421212,-7.7862447404,5.026123871299999,20
126392,191026,257828,-2.9718856692,-7.718049296299999,5.0536413312,21
126439,191067,257849,-3.0269205889999995,-7.7192457076,5.1158547188000005,22
126531,191109,257904,-2.9539394997,-7.8640114749,5.1421757674,23
126949,191141,257920,-2.9156543381000004,-7.9178499834,5.112265484900001,24
126938,191205,257991,-2.9527430884,-7.5984081663000005,5.0069812905,25
127441,191306,258040,-2.883351233,-7.654639497399999,5.0919264928,26
127606,191364,258071,-2.9838497821999996,-7.7324062319,5.1756752837999995,27
128024,191533,258109,-2.8606194183,-7.861618652300001,5.1541398804,28
128140,191589,258160,-2.8426732488,-7.9716884919,5.073980323300001,29
127447,191406,258100,-3.0532416376,-7.77667345,5.1218367753,30
125870,190978,257775,-2.8797619991,-7.750352401400001,5.139782944799999,31
125041,190692,257646,-2.9994031291,-7.8173514342,5.194817864599999,32
124900,190576,257614,-2.9240292172,-7.872386354,5.0799623797999995,33
124976,190596,257619,-2.8785655878,-7.6235328036,5.0464628634,34
125187,190664,257645,-3.1441688964,-7.8556365958,5.1541398804,35
125563,190815,257694,-2.9886354273999998,-7.5792655855,5.0943193154,36
126011,190935,257786,-3.038884702,-7.8149586116,5.2977092364,37
126135,191002,257779,-3.1417760738,-7.9956167179,5.070391089399999,38
126116,190987,257824,-3.1250263156,-8.0291162343,4.6851466508,39
126284,191030,257827,-2.8809584104000003,-7.8341011924,4.883750926599999,40
126518,191099,257837,-3.2602207924999997,-7.8879397009000005,4.7581277401,41
126718,191160,257905,-3.3439695835000003,-8.1140614366,4.2065821308,42
126991,191195,257916,-3.3678978095,-8.3413795836,3.9696926934,43
127211,191319,258000,-3.3571301077999998,-8.204988695399999,3.924229064,44
127518,191365,258048,-3.493520996,-8.1487573643,4.1359938641000005,45
127674,191397,258020,-3.3810583338,-8.2025958728,4.1838503161,46
126667,191162,257876,-3.1549365981,-8.3318082932,4.2340995907,47
125078,190706,257646,-3.1286155494999996,-8.398807326,4.4709890281,48
124372,190390,257368,-2.8821548217,-8.4012001486,4.1730826144,49
123912,190300,257424,-3.0747770410000004,-8.1260255496,4.2017964856,50
124106,190263,257348,-3.170489945,-8.0063844196,4.237688824599999,51
124201,190310,257399,-3.3367911156999996,-8.0255270004,4.465006971599999,52
124541,190367,257473,-3.1357940173,-8.1272219609,4.3992043501,53
125099,190539,257545,-3.1393832512,-8.13559684,4.4063828179,54
125207,190659,257607,-3.0891339766000003,-8.2983087768,4.3573299546,55
125290,190703,257661,-3.1740791789,-8.3449688175,4.3034914461,56
125576,190725,257617,-3.3272198253,-8.362914987,4.2987058009,57
125845,190826,257682,-3.0472595810999996,-8.084151154099999,4.0414773714,58
125781,190897,257784,-3.1812576466999998,-8.137989662599999,4.387240237099999,59
126259,190988,257811,-3.1262227269,-8.0195449439,4.5188454800999995,60
126607,191100,257848,-3.0927232105,-8.1391860739,4.527220359199999,61
126630,191131,257872,-3.1489545415999998,-8.160721477300001,4.4889351976,62
125562,190880,257716,-3.0735806297,-8.13559684,4.5439701174,63
124225,190454,257443,-3.0735806297,-8.1726855903,4.438685923,64
123692,190204,257323,-3.2673992603000004,-8.4873417622,4.5248275366,65
123735,190161,257321,-3.1513473642000003,-8.1439717191,4.3082770913,66
123806,190170,257355,-3.266202849,-8.2468630909,4.4291146326,67
124156,190271,257415,-2.8737799425999997,-7.9549387337,4.5188454800999995,68
124554,190477,257514,-2.8881368781999996,-7.8065837325,4.6995035864000005,69
124944,190667,257604,-3.2315069213,-8.1403824852,4.3214376156,70
125088,190753,257651,-2.9694928465999997,-8.169096356399999,4.4793639072,71
125212,190814,257692,-2.9694928465999997,-8.0901332106,4.5355952383,72
125699,190860,257734,-3.0089744195,-8.2995051881,4.6037906824000006,73
125762,190927,257734,-2.9611179675,-8.0015987744,4.713860522,74
126318,191054,257840,-3.086741154,-8.364111398299999,4.4207397534999995,75
126421,191164,257886,-2.7768706272999997,-7.969295669299999,4.2927237444,76
126825,191289,257962,-2.8151557889,-8.0315090569,4.4315074552,77
127265,191396,258072,-2.9814569596,-8.1619178886,4.5260239479,78
127578,191463,258099,-3.1226334930000004,-8.0650085733,4.462614149,79
127569,191483,258105,-2.8582265956999997,-8.3210405915,4.3836510032,80
126509,191240,257984,-2.9563323222999998,-8.25523797,4.4530428586,81
125333,190783,257685,-3.0293134116,-8.1092757914,4.4793639072,82
124500,190488,257469,-2.9204399833,-8.1583286547,4.320241204299999,83
124413,190411,257464,-2.9503502657999996,-8.3222370028,4.3704904789,84
124651,190409,257516,-2.8881368781999996,-8.2289169214,4.4004007614,85
124807,190466,257547,-2.9742784918,-8.281559018600001,4.3752761241,86
125201,190609,257605,-2.9682964353,-8.2456666796,4.3740797127999995,87
125815,190732,257704,-2.8821548217,-8.3090764785,4.5308095931,88
125939,190898,257803,-2.7026931267000003,-8.2480595022,4.3166519704,89
126130,190941,257756,-2.7003003040999998,-8.2755769621,4.4757746733,90
126419,191006,257806,-2.8331019584000003,-8.3114693011,4.3525443094,91
126608,191071,257881,-2.9395825641,-8.2660056717,4.3645084224,92
126926,191198,257941,-2.9898318387,-8.3784683339,4.4422751569,93
127251,191293,257987,-2.8450660714,-8.2384882118,4.319044793,94
127585,191405,258070,-2.8929225234,-8.254041558700001,4.4614177377,95
127923,191509,258127,-2.7589244578,-8.3485580514,4.3740797127999995,96
128004,191496,258141,-2.8570301844,-8.3294154706,4.3022950348,97
126890,191202,257938,-2.9252256285000002,-8.1726855903,4.3860438258,98
125612,190820,257720,-2.8965117573,-8.1487573643,4.3334017286,99
125274,190601,257572,-2.7266213527,-8.2337025666,4.378865358,100
125292,190570,257581,-2.8426732488,-8.2061851067,4.3884366484,101
125577,190600,257699,-2.9359933301999996,-8.2827554299,4.4039899953,102
125970,190705,257681,-2.7912275628999996,-8.291130309,4.342973019,103
126466,190867,257806,-2.9706892578999997,-8.207381518,4.3657048337,104
126686,190983,257850,-2.8534409504999996,-8.243273857,4.4542392699,105
126814,191063,257939,-2.8259234905999997,-8.227720510100001,4.4470608021,106
126782,191109,257936,-2.7003003040999998,-8.2839518412,4.342973019,107
127223,191162,257956,-2.8283163132,-8.2695949056,4.4446679795,108
127476,191279,257984,-2.8259234905999997,-8.1403824852,4.4494536247,109
127893,191380,258063,-2.9395825641,-8.0733834524,4.366901245,110
128224,191512,258110,-2.7505495787000003,-8.1942209937,4.4518464473,111
128678,191626,258226,-2.8701907087,-8.3748791,4.4171505196,112
128523,191669,258188,-2.8211378454,-8.243273857,4.4303110439,113
127797,191428,258076,-2.8737799425999997,-8.2707913169,4.3501514868,114
126323,191021,257809,-2.7912275628999996,-8.3078800672,4.462614149,115
125856,190781,257691,-2.7696921595,-8.3102728898,4.4015971727,116
125655,190735,257681,-2.9395825641,-8.2516487361,4.4255253987,117
125792,190754,257714,-2.9455646206,-8.2648092604,4.3118663252,118
126122,190842,257755,-2.9886354273999998,-8.3712898661,4.3381873738,119
126577,190987,257885,-3.014956476,-8.182256880699999,4.4171505196,120
126997,191198,257969,-3.0305098229,-8.2767733734,4.2903309218,121
127242,191206,258031,-2.9108686929000003,-8.281559018600001,4.3118663252,122
127658,191412,258098,-2.8223342567,-8.281559018600001,4.3238304382,123
127638,191480,258139,-3.0424739359,-8.2468630909,4.3968115275,124
128039,191603,258202,-2.8438696600999998,-8.293523131599999,4.3142591478000005,125
128468,191752,258305,-3.0041887742999998,-8.2875410751,4.4757746733,126
128952,191911,258361,-2.8689942974,-8.2983087768,4.2999022122,127
129174,192042,258455,-2.9383861528,-8.2648092604,4.4422751569,128
129640,192208,258537,-2.9108686929000003,-8.3198441802,4.3130627365,129
129326,192220,258480,-2.8151557889,-8.254041558700001,4.3728833015,130
128200,191918,258288,-2.9132615155,-8.2971123655,4.3525443094,131
126929,191600,258109,-2.9359933301999996,-8.3282190593,4.366901245,132
126538,191467,258058,-3.0400811133000003,-8.271987728200001,4.4446679795,133
126580,191469,258095,-2.9958138952,-8.2325061553,4.3094735026,134
126918,191512,258132,-3.0233313551,-8.227720510100001,4.2017964856,135
127139,191619,258165,-2.9288148624,-8.2504523248,4.3968115275,136
127760,191788,258249,-2.8929225234,-8.2851482525,4.2855452766,137
128216,191990,258405,-2.8510481279,-8.2600236152,4.3680976563,138
128620,192119,258469,-2.7385854657,-8.2564343813,4.283152454,139
128815,192262,258520,-2.9216363945999997,-8.2767733734,4.4075792292,140
129256,192382,258596,-3.0843483314,-8.3294154706,4.3214376156,141
129601,192568,258686,-2.8271199019,-8.267202082999999,4.3884366484,142
130035,192722,258778,-3.0101708308,-8.2887374864,4.3764725354000005,143
130566,192903,258860,-2.8761727652,-8.2779697847,4.4087756405,144
130882,193012,258974,-3.0017959517,-8.327022648,4.4709890281,145
131372,193159,258972,-2.9096722816000002,-8.254041558700001,4.2544385828,146
131009,193150,258947,-3.0951160330999996,-8.1966138163,4.2903309218,147
130005,192942,258821,-2.9240292172,-8.1535430095,4.3621155998,148
129011,192777,258663,-2.8749763539,-8.2863446638,4.366901245,149
128683,192698,258689,-3.0053851856000002,-8.398807326,4.3142591478000005,150
128894,192773,258710,-2.8642086522,-8.1655071225,4.2568314054,151
129323,192845,258779,-2.9359933301999996,-8.4251283746,4.3968115275,152
129599,192970,258833,-2.9036902251,-8.1571322434,4.3764725354000005,153
130154,193126,258904,-2.9336005076,-8.115257847899999,4.42672181,154
130563,193312,258943,-2.8929225234,-8.2384882118,4.3848474145,155
130717,193407,259025,-2.9383861528,-8.2372918005,4.3369909625,156
131078,193521,259049,-2.8378876036,-8.2923267203,4.319044793,157
131466,193650,259134,-2.9060830476999997,-8.4299140198,4.3704904789,158
132010,193742,259219,-2.8953153460000003,-8.362914987,4.3764725354000005,159
132217,193896,259261,-2.7505495787000003,-8.2683984943,4.3334017286,160
132743,194098,259414,-2.8331019584000003,-8.1786676468,4.3561335433,161
132988,194213,259443,-2.9754749031,-8.315058535,4.4590249151000005,162
133681,194350,259509,-2.8570301844,-8.2923267203,4.4446679795,163
133514,194339,259436,-2.8115665549999997,-8.2504523248,4.3238304382,164
132874,194235,259369,-2.9599215562,-8.2743805508,4.3094735026,165
132099,194189,259324,-2.8498517166,-8.3593257531,4.2747775749,166
131680,194224,259342,-2.8211378454,-8.3377903497,4.378865358,167
132195,194270,259427,-2.6991038927999997,-8.1774712355,4.2221354777,168
132112,194346,259416,-2.7768706272999997,-8.3330047045,4.3633120111,169
132541,194462,259469,-2.9036902251,-8.3581293418,4.402793583999999,170
133093,194571,259521,-2.823530668,-8.3114693011,4.3704904789,171
133427,194667,259579,-2.8402804262,-8.2157563971,4.2855452766,172
133776,194790,259600,-2.7457639335,-8.2205420423,4.3022950348,173
133932,194860,259676,-2.8701907087,-8.2971123655,4.4195433422,174
134260,194969,259688,-2.8223342567,-8.291130309,4.2340995907,175
134800,195072,259787,-2.9180471607,-8.2839518412,4.4422751569,176
135252,195207,259819,-2.8043880872,-8.1523465982,4.3345981399,177
135480,195338,259909,-2.8737799425999997,-8.1870425259,4.2879380992,178
135837,195428,259954,-2.6907290137,-8.2923267203,4.4195433422,179
136024,195451,259939,-2.8426732488,-8.3688970435,4.3525443094,180
136083,195365,259870,-2.7804598612,-8.281559018600001,4.4039899953,181
135351,195287,259789,-2.7744778047,-8.2169528084,4.4207397534999995,182
134941,195292,259803,-2.7086751831999996,-8.4095750277,4.414757697,183
134538,195307,259849,-2.9060830476999997,-8.3090764785,4.247260115,184
134700,195391,259927,-2.8462624827,-8.25523797,4.4781674959,185
134988,195432,259921,-2.9922246613000003,-8.262416437799999,4.4171505196,186
135315,195566,259998,-2.7924239742,-8.1726855903,4.2891345105,187
135770,195628,259969,-2.8103701436999997,-8.3401831723,4.354937132,188
135803,195751,260031,-2.8331019584000003,-8.3318082932,4.3944187049,189
136012,195789,260072,-2.8283163132,-8.1726855903,4.331008906,190
136309,195873,260132,-2.9096722816000002,-8.5232341012,4.3896330597,191
136649,195975,260128,-2.8426732488,-8.3485580514,4.3357945512,192
136761,196065,260231,-3.0675985732,-8.3569329305,4.5068813671,193
137209,196131,260317,-2.6476582069,-8.2229348649,4.2747775749,194
137620,196257,260328,-2.8247270792999997,-8.4023965599,4.4339002778,195
137787,196306,260328,-2.8151557889,-8.3102728898,4.2664026958,196
137816,196307,260285,-2.7960132080999998,-8.3533436966,4.3022950348,197
137466,196174,260197,-2.9024938138,-8.2348989779,4.3357945512,198
136798,196145,260144,-2.7661029256000003,-8.279166196,4.271188340999999,199
136045,196063,260138,-2.8043880872,-8.2037922841,4.3597227772,200
136004,196081,260110,-2.7146572396999997,-8.102097323599999,4.2735811636,201
135795,196096,260126,-2.8654050635,-8.2384882118,4.3944187049,202
135920,196120,260192,-2.9336005076,-8.2755769621,4.4662033829,203
136219,196159,260223,-2.7708885708000004,-8.360522164399999,4.2257247116,204
136550,196235,260187,-2.7601208691,-8.207381518,4.4183469309,205
136473,196279,260231,-2.883351233,-8.262416437799999,4.3597227772,206
136668,196318,260211,-2.8402804262,-8.2959159542,4.2640098732,207
136841,196364,260288,-2.8642086522,-8.471788415299999,4.3692940676,208
136964,196448,260314,-3.0436703472,-8.207381518,4.4733818507,209
137352,196501,260330,-3.0532416376,-8.4203427294,4.402793583999999,210
137523,196553,260361,-2.7912275628999996,-8.2145599858,4.2891345105,211
137744,196642,260393,-3.0759734523,-8.2839518412,4.4542392699,212
137902,196686,260446,-2.7984060307000003,-8.3126657124,4.331008906,213
138144,196683,260333,-2.8271199019,-8.2600236152,4.2640098732,214
137636,196498,260233,-2.8809584104000003,-8.236095389199999,4.2999022122,215
136660,196343,260175,-2.8426732488,-8.3126657124,4.2340995907,216
135808,196298,260120,-2.919243572,-8.1463645417,4.3692940676,217
135566,196249,260097,-2.8438696600999998,-8.1583286547,4.1431723319,218
135253,196226,260090,-2.9168507494,-8.3461652288,4.3465622529,219
135329,196260,260107,-2.9742784918,-8.2348989779,4.3166519704,220
135415,196290,260088,-2.7649065143000002,-8.1535430095,4.390829471,221
135734,196311,260112,-2.9431717980000003,-8.2743805508,4.3980079388,222
135813,196341,260104,-2.9814569596,-8.1415788965,4.4075792292,223
135922,196376,260104,-2.8319055471,-8.2205420423,4.2340995907,224
136143,196420,260107,-2.7780670386,-8.362914987,4.353740720699999,225
136222,196423,260136,-2.8953153460000003,-8.1044901462,4.319044793,226
136413,196473,260200,-2.7553352239,-8.219345631,4.2735811636,227
136674,196545,260227,-2.9264220398,-8.1511501869,4.1826539048,228
136856,196601,260266,-2.9659036127,-8.281559018600001,4.2532421715,229
137290,196662,260238,-2.8534409504999996,-8.3018980107,4.2855452766,230
137343,196676,260198,-2.8307091358,-8.3222370028,4.2544385828,231
136868,196423,260120,-2.8331019584000003,-8.195417404999999,4.2759739861999995,232
136084,196317,259974,-2.7577280465,-8.3282190593,4.4566320925,233
134692,196194,259881,-2.7708885708000004,-8.3007015994,4.3920258823,234
134294,196111,259870,-2.9874390161,-8.280362607299999,4.3010986235,235
133908,196087,259817,-2.87138712,-8.3318082932,4.353740720699999,236
133857,196038,259811,-2.8007988533,-8.2061851067,4.2687955184,237
134055,196099,259834,-2.6847469572,-8.3342011158,4.3405801963999995,238
134307,196124,259876,-2.7852455064000003,-8.3772719226,4.2735811636,239
134437,196181,259898,-2.739781877,-8.327022648,4.3393837851,240
134777,196252,259907,-2.9120651042,-8.2420774457,4.2388852359,241
134596,196271,259854,-3.0257241777000004,-8.3617185757,4.3238304382,242
134903,196306,259925,-2.7661029256000003,-8.3353975271,4.2664026958,243
135014,196355,259953,-2.7565316351999996,-8.2002030502,4.4590249151000005,244
135114,196420,259958,-2.7493531674,-8.2564343813,4.3896330597,245
135607,196497,260013,-2.7337998205,-8.236095389199999,4.4315074552,246
135569,196540,260018,-2.7433711108999996,-8.267202082999999,4.3609191885,247
135954,196506,259956,-2.787638329,-8.2995051881,4.1551364449,248
135110,196288,259800,-2.8953153460000003,-8.2576307926,4.465006971599999,249
133739,196056,259673,-2.8067809098,-8.281559018600001,4.3501514868,250
132958,195928,259538,-2.6536402634000003,-8.3772719226,4.30708068,251
132413,195815,259526,-2.6835505459,-8.279166196,4.3094735026,252
132323,195753,259464,-2.8402804262,-8.3677006322,4.4446679795,253
132414,195718,259516,-2.8426732488,-8.294719542900001,4.3692940676,254
132727,195790,259514,-2.7661029256000003,-8.3377903497,4.30708068,255
132988,195825,259523,-2.8307091358,-8.3461652288,4.2197426551,256
133353,195886,259522,-2.823530668,-8.3437724062,4.3633120111,257
133374,195926,259524,-2.7302105866,-8.271987728200001,4.3094735026,258
133462,195919,259536,-2.8115665549999997,-8.3700934548,4.3046878574,259
133839,195949,259541,-2.7744778047,-8.281559018600001,4.4566320925,260
134067,195972,259602,-2.883351233,-8.4095750277,4.465006971599999,261
134260,196041,259627,-2.691925425,-8.3018980107,4.3848474145,262
134581,196138,259660,-2.9084758702999998,-8.3007015994,4.4195433422,263
134642,196195,259617,-2.8055844984999996,-8.3796647452,4.2759739861999995,264
134698,196093,259556,-2.7696921595,-8.3653078096,4.2975093896,265
133509,195799,259399,-2.9455646206,-8.195417404999999,4.3334017286,266
132131,195534,259215,-2.8331019584000003,-8.1990066389,4.3441694303,267
131215,195360,259081,-2.9718856692,-8.386843213,4.354937132,268
130927,195203,259022,-2.8307091358,-8.1667035338,4.2999022122,269
131069,195158,258951,-2.8007988533,-8.2743805508,4.2317067681000005,270
131262,195180,258941,-2.9802605483,-8.3856468017,4.2927237444,271
131873,195221,259013,-2.8402804262,-8.2983087768,4.3645084224,272
131983,195249,259016,-2.8079773211,-8.3102728898,4.3226340269,273
132250,195299,259058,-2.8582265956999997,-8.2743805508,4.3142591478000005,274
132415,195297,259033,-3.0293134116,-8.303094422,4.2269211229,275
132483,195335,259038,-2.8701907087,-8.2743805508,4.378865358,276
132968,195359,259086,-2.8809584104000003,-8.2516487361,4.3633120111,277
133201,195456,259116,-2.9168507494,-8.293523131599999,4.4099720518000005,278
133670,195508,259143,-2.7409782883,-8.3318082932,4.2185462438,279
133789,195578,259188,-2.8845476443,-8.347361640099999,4.3704904789,280
134141,195602,259257,-2.9491538545,-8.1643107112,4.2975093896,281
134197,195620,259166,-2.787638329,-8.1846497033,4.2568314054,282
133312,195319,258987,-2.7349962318,-8.3114693011,4.2915273330999995,283
131769,194961,258791,-2.9970103065,-8.3377903497,4.3597227772,284
130754,194728,258709,-2.7625136916999997,-8.2827554299,4.2281175342,285
130503,194601,258566,-2.8163522002,-8.1966138163,4.3393837851,286
130523,194544,258615,-2.9240292172,-8.3102728898,4.3118663252,287
130922,194541,258591,-2.8737799425999997,-8.4335032537,4.4015971727,288
131282,194569,258600,-2.8043880872,-8.2229348649,4.2927237444,289
131692,194626,258701,-2.8486553053,-8.2695949056,4.4015971727,290
131958,194666,258677,-2.8785655878,-8.362914987,4.2783668087999995,291
132016,194689,258769,-2.8211378454,-8.3365939384,4.247260115,292
132320,194710,258765,-2.7385854657,-8.2456666796,4.2616170506,293
132733,194755,258813,-3.0065815969000003,-8.219345631,4.3501514868,294
132959,194790,258808,-2.6847469572,-8.3976109147,4.3800617693,295
133288,194879,258906,-3.146561719,-8.3413795836,4.353740720699999,296
133647,194943,258986,-2.7062823606,-8.3186477689,4.2604206393,297
133935,195020,259018,-2.7912275628999996,-8.3545401079,4.4757746733,298
134256,195079,259051,-2.7996024420000003,-8.306683655899999,4.2903309218,299
134167,195018,259071,-2.8474588940000003,-8.1870425259,4.3046878574,300
132950,194731,258823,-2.7529424013,-8.25523797,4.3728833015,301
131652,194368,258672,-2.9527430884,-8.2420774457,4.295116567,302
131043,194157,258549,-2.9922246613000003,-8.227720510100001,4.3118663252,303
130868,194087,258513,-2.6691936103000002,-8.2983087768,4.237688824599999,304
131115,194012,258464,-2.9659036127,-8.2480595022,4.3405801963999995,305
131519,194022,258503,-2.7912275628999996,-8.3677006322,4.3286160834,306
132034,194071,258579,-2.8546373618,-8.2133635745,4.3118663252,307
132500,194132,258611,-2.7349962318,-8.3413795836,4.3118663252,308
132611,194204,258622,-2.7218357075,-8.4155570842,4.2496529376,309
132671,194240,258650,-2.7050859493,-8.182256880699999,4.342973019,310
133060,194286,258666,-2.7888347403,-8.195417404999999,4.3740797127999995,311
133081,194311,258768,-2.8043880872,-8.3138621237,4.2496529376,312
133511,194385,258820,-2.6548366747000003,-8.303094422,4.3094735026,313
133866,194426,258879,-2.9072794589999997,-8.2468630909,4.4195433422,314
134115,194597,258893,-2.6404797391000003,-8.3054872446,4.3561335433,315
134474,194654,259043,-2.9336005076,-8.3330047045,4.2939201557,316
134771,194730,259093,-2.7565316351999996,-8.3545401079,4.1682969692,317
134372,194618,258957,-2.8247270792999997,-8.2707913169,4.4195433422,318
133148,194322,258747,-2.6871397798,-8.293523131599999,4.354937132,319
131979,193998,258630,-2.7912275628999996,-8.1966138163,4.3142591478000005,320
131725,193809,258507,-2.8941189347,-8.2743805508,4.4662033829,321
131768,193776,258444,-2.7541388126,-8.2181492197,4.2496529376,322
132007,193761,258480,-2.787638329,-8.4155570842,4.2903309218,323
132221,193824,258580,-2.8378876036,-8.2289169214,4.3680976563,324
133061,193896,258607,-2.8689942974,-8.2456666796,4.3405801963999995,325
133036,194017,258617,-2.7960132080999998,-8.2217384536,4.3525443094,326
133202,194025,258708,-2.8307091358,-8.252845147399999,4.4087756405,327
133238,194038,258720,-2.7230321187999995,-8.2133635745,4.2161534212,328
133547,194081,258755,-2.8725835312999997,-8.2468630909,4.4291146326,329
133783,194142,258831,-2.8701907087,-8.2743805508,4.3896330597,330
134236,194244,258904,-2.8534409504999996,-8.1667035338,4.366901245,331
134686,194306,258904,-2.8115665549999997,-8.2109707519,4.2855452766,332
134756,194397,258975,-2.9599215562,-8.3772719226,4.4662033829,333
135168,194454,259011,-2.8642086522,-8.3784683339,4.3238304382,334
134819,194352,258989,-2.8438696600999998,-8.4083786164,4.3262232608,335
133500,194036,258777,-2.9108686929000003,-8.25523797,4.390829471,336
132378,193676,258583,-2.823530668,-8.327022648,4.2915273330999995,337
132066,193482,258508,-2.8857440556,-8.3485580514,4.3992043501,338
131861,193429,258447,-2.7744778047,-8.2384882118,4.3848474145,339
132150,193402,258466,-2.9874390161,-8.294719542900001,4.3597227772,340
132606,193475,258481,-2.8857440556,-8.4035929712,4.2879380992,341
132790,193608,258586,-2.9324040963,-8.2576307926,4.1671005579,342
133171,193616,258696,-2.8677978860999995,-8.281559018600001,4.2687955184,343
133306,193648,258706,-2.931207685,-8.2456666796,4.2460637037,344
133557,193689,258741,-2.7888347403,-8.3485580514,4.3692940676,345
133705,193764,258721,-2.9826533709,-8.4203427294,4.3621155998,346
134012,193836,258809,-2.8402804262,-8.3952180921,4.3381873738,347
134448,193901,258870,-2.967100024,-8.1308111948,4.2903309218,348
134627,194017,258940,-2.7361926431000003,-8.2516487361,4.2065821308,349
134967,194055,258964,-2.9970103065,-8.2875410751,4.4398823343,350
135407,194202,259037,-2.7601208691,-8.2121671632,4.2783668087999995,351
135057,194093,258960,-2.8606194183,-8.243273857,4.3513478981,352
134044,193728,258761,-2.9479574432,-8.170292767700001,4.3298124947,353
132872,193353,258539,-2.9144579268,-8.410771439,4.3609191885,354
132388,193174,258484,-3.0329026454999997,-8.267202082999999,4.247260115,355
132386,193090,258445,-2.7302105866,-8.185846114599999,4.1682969692,356
132637,193058,258458,-2.9778677257000004,-8.3007015994,4.3094735026,357
132914,193134,258566,-2.8785655878,-8.3677006322,4.2735811636,358
133153,193199,258569,-2.9359933301999996,-8.129614783500001,4.3154555591,359
133502,193287,258630,-2.8366911923,-8.183453292,4.3334017286,360
133704,193320,258658,-2.8438696600999998,-8.4550386571,4.3381873738,361
133766,193337,258705,-3.0233313551,-8.2325061553,4.2783668087999995,362
133993,193396,258725,-2.8857440556,-8.3377903497,4.382454591899999,363
134326,193478,258757,-2.7242285301,-8.2109707519,4.4015971727,364
134592,193563,258826,-3.062812928,-8.410771439,4.353740720699999,365
135040,193678,258843,-2.8450660714,-8.1870425259,4.1826539048,366
135236,193790,258947,-2.8666014748,-8.2468630909,4.4973100767,367
135547,193881,259031,-2.8881368781999996,-8.350950873999999,4.2975093896,368
135649,193851,258960,-2.8055844984999996,-8.327022648,4.2652062845000005,369
134585,193525,258825,-3.0305098229,-8.3377903497,4.3381873738,370
133516,193170,258584,-2.9706892578999997,-8.2612200265,4.3764725354000005,371
132838,192914,258469,-2.8965117573,-8.2588272039,4.2879380992,372
132684,192806,258439,-2.8546373618,-8.1774712355,4.3513478981,373
132904,192799,258414,-2.8271199019,-8.3557365192,4.3573299546,374
133100,192870,258466,-2.8582265956999997,-8.4430745441,4.3094735026,375
133488,192968,258501,-2.7924239742,-8.3174513576,4.2759739861999995,376
133724,193026,258597,-2.7361926431000003,-8.3186477689,4.283152454,377
133889,193103,258607,-2.7457639335,-8.2504523248,4.382454591899999,378
134182,193144,258679,-2.7996024420000003,-8.2181492197,4.2544385828,379
134205,193162,258718,-2.9958138952,-8.4885381735,4.2927237444,380
134430,193260,258764,-2.7553352239,-8.2133635745,4.3621155998,381
134583,193340,258805,-2.7864419177,-8.4538422458,4.5212383027000005,382
135071,193433,258854,-2.7996024420000003,-8.2648092604,4.2496529376,383
135503,193537,258920,-2.931207685,-8.2217384536,4.465006971599999,384
135572,193604,258967,-2.9455646206,-8.3449688175,4.211367776,385
135415,193571,258941,-2.8749763539,-8.279166196,4.3944187049,386
134261,193253,258747,-2.7960132080999998,-8.1942209937,4.366901245,387
133127,192862,258486,-2.8642086522,-8.303094422,4.295116567,388
132512,192623,258389,-2.823530668,-8.231309744,4.2687955184,389
132246,192580,258388,-2.6823541346,-8.267202082999999,4.2496529376,390
132395,192580,258362,-2.9503502657999996,-8.2695949056,4.3692940676,391
132725,192621,258387,-2.7696921595,-8.3222370028,4.4004007614,392
133051,192761,258521,-2.7433711108999996,-8.1451681304,4.2735811636,393
133349,192834,258545,-2.9431717980000003,-8.3078800672,4.2687955184,394
133461,192842,258554,-2.8977081686,-8.1212399044,4.4446679795,395
133452,192913,258558,-2.87138712,-8.2743805508,4.2927237444,396
133857,192952,258635,-2.9144579268,-8.3557365192,4.415954108299999,397
133952,193049,258678,-2.7888347403,-8.2887374864,4.353740720699999,398
134223,193119,258704,-2.9850461935,-8.4143606729,4.3633120111,399
134383,193232,258780,-2.7696921595,-8.1978102276,4.2963129783,400
134579,193349,258848,-3.0065815969000003,-8.3557365192,4.3573299546,401
134697,193411,258935,-2.8426732488,-8.3042908333,4.208974953399999,402
134646,193369,258817,-2.8091737324,-8.1726855903,4.18743955,403
133353,192982,258672,-3.0113672421,-8.293523131599999,4.3166519704,404
131768,192554,258379,-2.7314069979,-8.25523797,4.3956151162,405
130992,192278,258167,-2.9168507494,-8.2372918005,4.3286160834,406
130769,192186,258189,-2.9204399833,-8.254041558700001,4.2687955184,407
130641,192159,258164,-2.9599215562,-8.2301133327,4.3238304382,408
130615,192224,258183,-2.8989045799,-8.2695949056,4.1850467274,409
131033,192279,258243,-2.8510481279,-8.2767733734,4.2783668087999995,410
131212,192366,258276,-2.9288148624,-8.3832539791,4.3022950348,411
131309,192423,258335,-2.7852455064000003,-8.2995051881,4.2975093896,412
131230,192448,258358,-2.9730820805000002,-8.4119678503,4.4135612857,413
131393,192532,258358,-2.8163522002,-8.2205420423,4.2293139454999995,414
131722,192574,258438,-3.0508488149999997,-8.195417404999999,4.2735811636,415
131844,192666,258475,-2.8558337731,-8.0949188558,4.242474469799999,416
132170,192781,258495,-2.9024938138,-8.1942209937,4.3417766077,417
132414,192894,258580,-2.9874390161,-8.4406817215,3.8931223702,418
132769,193000,258637,-2.9659036127,-8.249255913499999,4.3286160834,419
132707,192991,258655,-2.9802605483,-8.3078800672,4.2759739861999995,420
131723,192705,258435,-2.9515466771,-8.1511501869,4.3441694303,421
130227,192223,258176,-2.9874390161,-8.3832539791,4.2053857195,422
129367,191936,257973,-2.8857440556,-8.3724862774,4.3166519704,423
128788,191813,257932,-3.0412775246,-8.3222370028,4.247260115,424
128656,191818,257960,-2.9862426048,-8.3617185757,4.382454591899999,425
128954,191862,257962,-2.8905297008,-8.249255913499999,4.2999022122,426
129334,191928,258011,-2.7696921595,-8.405985793800001,4.2305103568,427
129702,192037,258114,-2.8845476443,-8.226524098799999,4.2400816472,428
129687,192087,258155,-2.9611179675,-8.231309744,4.2999022122,429
129843,192059,258199,-2.7696921595,-8.3222370028,4.3800617693,430
130253,192190,258170,-2.835494781,-8.1200434931,4.3166519704,431
130157,192251,258189,-2.8378876036,-8.3282190593,4.3058842687,432
130527,192359,258257,-2.7804598612,-8.360522164399999,4.3262232608,433
130938,192445,258296,-3.0005995404,-8.3964145034,4.1599220901,434
131174,192541,258370,-2.8570301844,-8.2683984943,4.3776689467,435
131485,192642,258417,-2.9336005076,-8.2444702683,4.5044885445,436
131922,192744,258475,-2.8307091358,-8.3796647452,4.247260115,437
131363,192635,258365,-2.8570301844,-8.2971123655,4.3106699139,438
129798,192248,258187,-2.9359933301999996,-8.3054872446,4.4410787456,439
128706,191880,257952,-2.7768706272999997,-8.2660056717,4.3250268494999995,440
128150,191717,257901,-2.7637101029999998,-8.2229348649,4.2329031794,441
127985,191673,257859,-2.656033086,-8.1798640581,4.3142591478000005,442
128437,191710,257934,-2.9395825641,-8.327022648,4.4697926167999995,443
128585,191777,257972,-2.6703900216,-8.3413795836,4.4327038665,444
129097,191901,258073,-2.8043880872,-8.3007015994,4.3034914461,445
129329,191974,258074,-2.7732813934,-8.254041558700001,4.3022950348,446
129451,192085,258091,-2.7266213527,-8.3042908333,4.3860438258,447
129540,192086,258056,-2.6596223199,-8.084151154099999,4.3573299546,448
129845,192162,258173,-2.7326034091999998,-8.350950873999999,4.2807596314,449
130115,192240,258173,-2.7625136916999997,-8.2157563971,4.3274196721000004,450
130533,192321,258245,-2.9072794589999997,-8.3054872446,4.2388852359,451
130717,192371,258337,-2.8079773211,-8.2839518412,4.342973019,452
131234,192535,258357,-2.8618158296000002,-8.239684623099999,4.402793583999999,453
131257,192585,258367,-2.8546373618,-8.1966138163,4.2604206393,454
130830,192467,258344,-2.9539394997,-8.25523797,4.3250268494999995,455
129469,192087,258092,-2.7337998205,-8.2636128491,4.3334017286,456
128377,191775,257881,-2.8498517166,-8.271987728200001,4.3692940676,457
128235,191646,257847,-2.7601208691,-8.291130309,4.3836510032,458
128144,191641,257911,-2.7373890544,-8.2456666796,4.3106699139,459
128621,191679,257969,-2.8749763539,-8.3461652288,4.3657048337,460
129203,191784,257975,-2.919243572,-8.2779697847,4.354937132,461
129585,191906,257988,-2.7852455064000003,-8.1918281711,4.3286160834,462
129801,192007,258133,-2.9515466771,-8.3294154706,4.415954108299999,463
129833,192040,258097,-2.6524438520999998,-8.227720510100001,4.342973019,464
130201,192074,258144,-2.8570301844,-8.280362607299999,4.1802610821999995,465
130173,192134,258182,-2.9635107901000004,-8.3557365192,4.3944187049,466
130664,192245,258210,-2.8701907087,-8.2743805508,4.3525443094,467
130881,192321,258312,-2.8510481279,-8.2851482525,4.4051864066,468
131204,192468,258396,-2.703889538,-8.074579863699999,4.1838503161,469
131527,192557,258434,-2.9826533709,-8.315058535,4.4075792292,470
131725,192595,258444,-2.9694928465999997,-8.417949906799999,4.295116567,471
131159,192467,258366,-2.8450660714,-8.195417404999999,4.2879380992,472
129466,192026,258109,-2.9635107901000004,-8.2002030502,4.4099720518000005,473
128555,191695,257941,-2.9084758702999998,-8.4083786164,4.30708068,474
128303,191561,257901,-2.8881368781999996,-8.2516487361,4.3046878574,475
128409,191548,257827,-2.8319055471,-8.2037922841,4.4111684631,476
128539,191532,257886,-2.7684957482,-8.0769726863,4.2520457602,477
128869,191612,257952,-2.8055844984999996,-8.404789382499999,4.2999022122,478
129259,191703,257956,-2.8809584104000003,-8.2588272039,4.30708068,479
129577,191819,258040,-2.9575287336000002,-8.3018980107,4.320241204299999,480
129735,191883,258056,-2.8666014748,-8.3581293418,4.3645084224,481
129885,191954,258087,-2.9120651042,-8.207381518,4.3920258823,482
130009,191976,258154,-2.9455646206,-8.3964145034,4.3417766077,483
130451,192099,258183,-2.8558337731,-8.252845147399999,4.237688824599999,484
130896,192250,258215,-2.8809584104000003,-8.2504523248,4.3166519704,485
130922,192326,258331,-2.8426732488,-8.2660056717,4.2149570099,486
131345,192421,258386,-2.9694928465999997,-8.3485580514,4.4135612857,487
131714,192485,258427,-2.9156543381000004,-8.2516487361,4.1814574935,488
131307,192430,258396,-2.9503502657999996,-8.254041558700001,4.2723847523,489
129908,192029,258168,-2.99102825,-8.1511501869,4.342973019,490
128941,191715,257925,-2.9611179675,-8.3222370028,4.3633120111,491
128865,191541,257856,-2.9922246613000003,-8.3377903497,4.3776689467,492
128926,191516,257885,-2.9563323222999998,-8.1391860739,4.2687955184,493
129144,191553,257933,-2.9012974024999996,-8.3461652288,4.415954108299999,494
129379,191632,257992,-2.9539394997,-8.1726855903,4.4350966891,495
129906,191715,258042,-2.9563323222999998,-8.2504523248,4.3226340269,496
130277,191809,258089,-2.9120651042,-8.2731841395,4.3381873738,497
130344,191908,258137,-2.9395825641,-8.2205420423,4.283152454,498
130717,191914,258190,-2.7625136916999997,-8.219345631,4.3405801963999995,499
130920,192005,258212,-2.8677978860999995,-8.1990066389,4.320241204299999,500
131213,192106,258264,-2.9264220398,-8.2348989779,4.2640098732,501
131463,192243,258342,-2.6368905052,-8.1272219609,4.2771703975,502
132053,192328,258410,-2.7337998205,-8.1200434931,4.3417766077,503
132164,192453,258515,-2.7421746995999996,-8.338986761000001,4.2903309218,504
132594,192561,258482,-2.8749763539,-8.2983087768,4.3860438258,505
132716,192585,258522,-2.9264220398,-8.3365939384,4.2329031794,506
132130,192413,258391,-2.8247270792999997,-8.240881034400001,4.2855452766,507
131029,192010,258157,-2.9934210726,-8.1942209937,4.3262232608,508
130434,191707,258086,-2.8689942974,-8.3126657124,4.3357945512,509
130321,191682,258018,-2.9443682093000003,-8.3294154706,4.2640098732,510
130705,191678,258059,-2.7924239742,-8.25523797,4.3800617693,511
130855,191722,258119,-2.8462624827,-8.3820575678,4.3298124947,512
131135,191815,258186,-2.7768706272999997,-8.2253276875,4.347758664200001,513
131613,191846,258217,-2.87138712,-8.2325061553,4.2927237444,514
132085,192027,258299,-2.9479574432,-8.1750784129,4.3393837851,515
132025,192078,258299,-2.6428725617,-8.2145599858,4.2101713647,516
132413,192091,258352,-2.8331019584000003,-8.1942209937,4.3728833015,517
132599,192184,258381,-2.8283163132,-8.303094422,4.2903309218,518
133073,192287,258431,-2.7361926431000003,-8.115257847899999,4.1288153963,519
133343,192382,258490,-2.8402804262,-8.2157563971,4.295116567,520
133706,192512,258573,-2.6871397798,-8.2875410751,4.4063828179,521
133923,192618,258636,-2.9216363945999997,-8.3880396243,4.4446679795,522
134185,192688,258621,-2.8019952646,-8.3533436966,4.2747775749,523
133674,192551,258577,-2.8941189347,-8.2612200265,4.4099720518000005,524
132744,192203,258365,-2.6105694566,-8.124829138299999,4.3692940676,525
132151,191920,258178,-2.7062823606,-8.450253011900001,4.2759739861999995,526
131982,191784,258154,-2.823530668,-8.386843213,4.3226340269,527
132052,191829,258137,-2.8091737324,-8.2121671632,4.319044793,528
132381,191893,258271,-2.8115665549999997,-8.1966138163,4.3118663252,529
132757,191987,258303,-2.8977081686,-8.2229348649,4.3836510032,530
133146,192073,258345,-2.7218357075,-8.3461652288,4.3357945512,531
133306,192201,258455,-2.7864419177,-8.338986761000001,4.2640098732,532
133531,192226,258426,-2.9288148624,-8.3126657124,4.4303110439,533
133725,192290,258467,-2.7314069979,-8.2025958728,4.2604206393,534
133993,192332,258532,-3.0352954681,-8.4131642616,4.4039899953,535
134177,192473,258568,-2.8378876036,-8.4035929712,4.3728833015,536
134630,192547,258631,-2.8749763539,-8.3342011158,4.347758664200001,537
134916,192678,258665,-2.7266213527,-8.2217384536,4.2675991071,538
135247,192782,258747,-2.9336005076,-8.360522164399999,4.42672181,539
135353,192826,258821,-2.8809584104000003,-8.3748791,4.3142591478000005,540
135186,192829,258705,-2.8785655878,-8.271987728200001,4.2460637037,541
133956,192421,258462,-2.9706892578999997,-8.1535430095,4.3046878574,542
132897,192054,258270,-2.8582265956999997,-8.2851482525,4.2759739861999995,543
132357,191862,258194,-2.7792634499,-8.3258262367,4.1958144290999995,544
132200,191850,258179,-2.6955146589,-8.2612200265,4.2687955184,545
132162,191850,258219,-2.9144579268,-8.25523797,4.3597227772,546
132428,191909,258222,-2.7625136916999997,-8.2707913169,4.402793583999999,547
132433,192046,258344,-2.9551359109999997,-8.2695949056,4.3262232608,548
133069,192134,258384,-2.8498517166,-8.3485580514,4.3585263658999995,549
132890,192172,258442,-3.0197421212,-8.3186477689,4.283152454,550
132915,192217,258472,-2.8414768375,-8.303094422,4.387240237099999,551
133131,192283,258473,-2.8259234905999997,-8.3425759949,4.3812581806,552
133130,192342,258523,-2.8558337731,-8.2504523248,4.3633120111,553
133465,192449,258551,-2.7637101029999998,-8.044669581199999,4.2879380992,554
133677,192552,258602,-2.7553352239,-8.182256880699999,4.1850467274,555
133918,192668,258691,-2.9048866364,-8.25523797,4.378865358,556
134155,192813,258720,-2.8917261120999997,-8.3306118819,4.3680976563,557
134169,192823,258683,-2.9204399833,-8.3557365192,4.1946180178,558
133320,192562,258516,-2.8761727652,-8.2157563971,4.3046878574,559
132025,192168,258267,-2.7912275628999996,-8.2372918005,4.354937132,560
131181,191873,258120,-3.0329026454999997,-8.360522164399999,4.2568314054,561
130847,191799,258116,-2.9120651042,-8.281559018600001,4.4111684631,562
130555,191780,258113,-2.9072794589999997,-8.2995051881,4.3154555591,563
130721,191867,258114,-2.9012974024999996,-8.2839518412,4.3573299546,564
131040,191948,258193,-2.9982067177999996,-8.3054872446,4.3441694303,565
131088,192030,258261,-2.7816562725,-8.204988695399999,4.3633120111,566
131347,192084,258304,-2.8570301844,-8.2109707519,4.3142591478000005,567
131396,192137,258306,-2.7972096194,-8.2851482525,4.4183469309,568
131429,192185,258337,-3.0137600647,-8.1750784129,4.2999022122,569
131487,192298,258377,-2.9240292172,-8.5124663995,4.319044793,570
131834,192364,258380,-2.7948167968,-8.2037922841,4.2616170506,571
131994,192462,258430,-2.739781877,-8.3234334141,4.3680976563,572
132286,192575,258535,-2.6979074815,-8.1631142999,4.2987058009,573
132420,192696,258557,-2.823530668,-8.231309744,4.4231325760999995,574
132794,192777,258624,-2.6895326024,-8.4131642616,4.2879380992,575
132805,192845,258616,-2.9336005076,-8.291130309,4.235296002,576
131764,192518,258462,-2.8199414341,-8.3377903497,4.3716868902,577
130312,192105,258195,-2.8486553053,-8.2205420423,4.242474469799999,578
129532,191859,258083,-2.7577280465,-8.4610207136,4.2975093896,579
129232,191784,257997,-2.8977081686,-8.2468630909,4.30708068,580
129310,191812,258046,-2.8378876036,-8.3054872446,4.2807596314,581
129404,191828,258027,-2.8331019584000003,-8.3222370028,4.2855452766,582
129721,191926,258138,-2.9144579268,-8.249255913499999,4.319044793,583
129736,192016,258185,-2.8905297008,-8.3126657124,4.3166519704,584
130133,192096,258242,-2.8498517166,-8.267202082999999,4.3501514868,585
130153,192090,258242,-2.9204399833,-8.2420774457,4.2687955184,586
130171,192165,258262,-2.6883361911000003,-8.2863446638,4.2855452766,587
130327,192232,258305,-2.8821548217,-8.279166196,4.3322053173,588
130721,192330,258332,-2.6739792555000004,-8.2289169214,4.2807596314,589
130972,192451,258365,-2.9587251449000003,-8.1966138163,4.2460637037,590
131143,192570,258472,-2.6476582069,-8.291130309,4.3585263658999995,591
131549,192668,258554,-2.9216363945999997,-8.267202082999999,4.3573299546,592
131532,192722,258536,-2.8666014748,-8.3844503904,4.320241204299999,593
131280,192616,258428,-2.7672993369,-8.160721477300001,4.3405801963999995,594
129728,192203,258251,-2.8259234905999997,-8.3712898661,4.4327038665,595
128716,191837,258006,-2.7816562725,-8.2683984943,4.3956151162,596
128320,191685,257963,-2.6751756668,-8.3282190593,4.3968115275,597
128234,191712,257959,-2.8247270792999997,-8.2456666796,4.3896330597,598
128485,191738,257972,-2.8546373618,-8.3964145034,4.3597227772,599
128853,191819,258083,-2.7864419177,-8.267202082999999,4.3573299546,600
129316,191932,258114,-2.7720849821,-8.2468630909,4.3262232608,601
129639,192016,258185,-2.9024938138,-8.338986761000001,4.3142591478000005,602
129688,192104,258246,-2.9838497821999996,-8.2013994615,4.3286160834,603
129637,192131,258221,-2.9563323222999998,-8.2695949056,4.3800617693,604
130063,192191,258232,-2.9048866364,-8.2899338977,4.3932222936,605
130224,192322,258340,-3.0017959517,-8.3222370028,4.2364924133,606
130627,192388,258349,-2.8881368781999996,-8.159525066,4.2616170506,607
130874,192495,258433,-2.7960132080999998,-8.1224363157,4.2783668087999995,608
131207,192624,258468,-2.7349962318,-8.3377903497,4.387240237099999,609
131524,192706,258521,-2.8534409504999996,-8.306683655899999,4.3286160834,610
131486,192721,258511,-2.9551359109999997,-8.2731841395,4.3405801963999995,611
130450,192490,258351,-2.8546373618,-8.2779697847,4.3680976563,612
128898,192007,258084,-2.9168507494,-8.4035929712,4.3920258823,613
128034,191672,257927,-2.8067809098,-8.3533436966,4.259224228,614
127728,191536,257863,-2.8187450228000004,-8.2289169214,4.3609191885,615
127731,191561,257855,-2.8965117573,-8.2337025666,4.2891345105,616
128030,191591,257879,-2.9060830476999997,-8.1798640581,4.3286160834,617
128189,191655,257927,-2.8737799425999997,-8.2600236152,4.3633120111,618
128732,191775,258013,-2.8307091358,-8.1427753078,4.3022950348,619
129027,191850,258029,-2.9623143788,-8.1786676468,4.2675991071,620
129067,191920,258048,-2.8283163132,-8.4023965599,4.2640098732,621
129453,191983,258133,-2.8163522002,-8.2337025666,4.237688824599999,622
129585,192041,258123,-2.919243572,-8.316254946299999,4.2975093896,623
129806,192144,258171,-2.8929225234,-8.2983087768,4.3286160834,624
130106,192218,258221,-2.8654050635,-8.2253276875,4.2161534212,625
130490,192364,258287,-2.8677978860999995,-8.316254946299999,4.2568314054,626
130935,192466,258351,-3.0436703472,-8.3545401079,4.366901245,627
131100,192535,258405,-2.8522445392,-8.3353975271,4.2041893082,628
130748,192395,258306,-2.931207685,-8.2600236152,4.2795632201,629
129139,191984,258032,-2.9539394997,-8.2899338977,4.354937132,630
128232,191627,257830,-2.9336005076,-8.3138621237,4.342973019,631
127813,191436,257772,-3.0053851856000002,-8.2899338977,4.2855452766,632
128037,191439,257808,-2.9001009912,-8.2923267203,4.2783668087999995,633
128192,191469,257790,-2.8845476443,-8.3246298254,4.3657048337,634
128517,191452,257841,-2.9730820805000002,-8.3102728898,4.347758664200001,635
129090,191649,257924,-2.8450660714,-8.2743805508,4.3046878574,636
129265,191791,257967,-2.8139593776000003,-8.281559018600001,4.283152454,637
129432,191816,257974,-2.8510481279,-8.2731841395,4.2879380992,638
129674,191895,258011,-2.8570301844,-8.2444702683,4.3142591478000005,639
129887,191963,258043,-2.9922246613000003,-8.3138621237,4.4063828179,640
130269,192031,258087,-2.7708885708000004,-8.362914987,4.208974953399999,641
130565,192175,258158,-2.9336005076,-8.3042908333,4.4303110439,642
131006,192288,258237,-2.7984060307000003,-8.267202082999999,4.3381873738,643
131277,192393,258259,-2.7744778047,-8.4143606729,4.3621155998,644
131644,192490,258329,-2.8211378454,-8.4012001486,4.271188340999999,645
131505,192459,258290,-2.8283163132,-8.3246298254,4.283152454,646
130143,192143,258125,-2.8941189347,-8.1990066389,4.2879380992,647
129038,191775,257879,-2.8558337731,-8.316254946299999,4.3597227772,648
128558,191568,257802,-2.8139593776000003,-8.3042908333,4.1527436223,649
128672,191514,257763,-2.9072794589999997,-8.170292767700001,4.283152454,650
129083,191545,257797,-3.0185457098999997,-8.4538422458,4.3932222936,651
129414,191632,257879,-2.8917261120999997,-8.4203427294,4.3094735026,652
129769,191743,257985,-2.7314069979,-8.410771439,4.2687955184,653
130234,191851,258007,-2.8642086522,-8.2157563971,4.3022950348,654
130412,191894,258073,-2.7529424013,-8.249255913499999,4.3142591478000005,655
130468,191949,258059,-2.7086751831999996,-8.1391860739,4.3214376156,656
130615,191952,258100,-2.8845476443,-8.3832539791,4.3166519704,657
131140,192056,258131,-2.691925425,-8.0889367993,4.319044793,658
131490,192156,258151,-2.8331019584000003,-8.1487573643,4.342973019,659
131778,192250,258283,-2.7110680058,-8.2025958728,4.2544385828,660
132113,192364,258283,-2.7409782883,-8.3677006322,4.3764725354000005,661
132195,192407,258351,-2.75174599,-8.3712898661,4.2616170506,662
131558,192222,258181,-2.7972096194,-8.1367932513,4.2783668087999995,663
130257,191808,257948,-2.7720849821,-8.291130309,4.2664026958,664
129509,191503,257791,-2.7553352239,-8.3198441802,4.2173498325,665
129245,191397,257744,-2.9288148624,-8.386843213,4.271188340999999,666
129275,191375,257771,-2.7984060307000003,-8.1619178886,4.3010986235,667
129491,191448,257775,-2.8402804262,-8.306683655899999,4.2807596314,668
129746,191504,257859,-2.9216363945999997,-8.293523131599999,4.3405801963999995,669
130056,191628,257918,-2.7505495787000003,-8.2887374864,4.3417766077,670
130280,191722,257952,-2.9359933301999996,-8.3007015994,4.3920258823,671
130305,191715,257919,-2.9120651042,-8.4239319633,4.2735811636,672
130601,191788,258004,-2.919243572,-8.2839518412,4.438685923,673
130632,191846,257978,-3.0484559924,-8.291130309,4.237688824599999,674
130854,191960,258067,-2.87138712,-8.3449688175,4.4398823343,675
131142,192061,258133,-2.8247270792999997,-8.1487573643,4.2640098732,676
131448,192156,258167,-2.7505495787000003,-8.2037922841,4.271188340999999,677
131688,192215,258236,-2.8163522002,-8.362914987,4.2843488653,678
131651,192231,258181,-2.9180471607,-8.352147285300001,4.1898323726,679
130333,191871,258005,-3.0077780082,-8.183453292,4.4171505196,680
129044,191443,257753,-3.0329026454999997,-8.2384882118,4.319044793,681
128368,191207,257612,-2.7912275628999996,-8.3078800672,4.3752761241,682
128167,191156,257635,-2.9970103065,-8.3772719226,4.2652062845000005,683
128059,191132,257649,-3.0460631697999996,-8.2301133327,4.3286160834,684
128301,191165,257600,-2.9742784918,-8.1667035338,4.3082770913,685
128568,191263,257670,-2.8893332895,-8.3174513576,4.3166519704,686
128908,191382,257736,-2.8821548217,-8.2468630909,4.3214376156,687
129042,191441,257770,-2.931207685,-8.1966138163,4.2520457602,688
129104,191486,257768,-2.7589244578,-8.155935832099999,4.415954108299999,689
129307,191579,257826,-3.0185457098999997,-8.2480595022,4.4039899953,690
129522,191601,257889,-2.9659036127,-8.3413795836,4.2281175342,691
129883,191754,257919,-2.7254249414,-8.1655071225,4.3944187049,692
129906,191730,257975,-2.9359933301999996,-8.1726855903,4.1958144290999995,693
130221,191963,258073,-2.9922246613000003,-8.2959159542,4.4602213264,694
130480,192040,258097,-2.8534409504999996,-8.239684623099999,4.2927237444,695
130662,192069,258111,-2.9814569596,-8.3342011158,4.2771703975,696
129570,191798,257923,-2.9563323222999998,-8.2217384536,4.3238304382,697
128452,191404,257678,-2.9336005076,-8.2923267203,4.4063828179,698
128058,191190,257613,-2.8570301844,-8.25523797,4.3118663252,699
127481,191127,257540,-2.8797619991,-8.350950873999999,4.2699919297,700
127816,191124,257566,-2.9132615155,-8.1942209937,4.3728833015,701
127900,191168,257632,-2.9168507494,-8.1846497033,4.3968115275,702
128279,191285,257637,-2.919243572,-8.271987728200001,4.3680976563,703
128675,191347,257708,-2.8869404668999996,-8.2145599858,4.3465622529,704
128745,191473,257763,-2.9096722816000002,-8.3449688175,4.3118663252,705
128849,191507,257796,-2.9551359109999997,-8.236095389199999,4.3728833015,706
128971,191567,257802,-2.8594230069999997,-8.2145599858,4.3226340269,707
129250,191640,257874,-2.8606194183,-8.2169528084,4.4039899953,708
129607,191736,257928,-2.7720849821,-8.195417404999999,4.258027816699999,709
129635,191854,257972,-2.823530668,-8.2145599858,4.2556349941,710
130179,192012,258098,-2.9527430884,-8.2109707519,4.415954108299999,711
130302,192084,258115,-2.9012974024999996,-8.347361640099999,4.2257247116,712
130357,192110,258131,-2.9096722816000002,-8.1391860739,4.2975093896,713
129476,191835,257990,-2.9228328059,-8.2241312762,4.4111684631,714
128572,191514,257765,-2.9120651042,-8.4023965599,4.3621155998,715
127814,191285,257640,-2.8426732488,-8.267202082999999,4.3800617693,716
127837,191221,257639,-2.9802605483,-8.3557365192,4.3992043501,717
127654,191235,257632,-2.7768706272999997,-8.252845147399999,4.3728833015,718
128118,191287,257655,-2.9252256285000002,-8.2755769621,4.2783668087999995,719
128193,191380,257719,-2.8211378454,-8.1619178886,4.3621155998,720
128695,191488,257807,-2.8749763539,-8.3222370028,4.2855452766,721
128684,191558,257841,-2.8223342567,-8.1870425259,4.3262232608,722
128962,191599,257858,-2.8139593776000003,-8.280362607299999,4.3094735026,723
129200,191692,257864,-2.9718856692,-8.3413795836,4.2520457602,724
129376,191776,257950,-2.8462624827,-8.3078800672,4.2281175342,725
129673,191866,257979,-2.8821548217,-8.087740388,4.2412780585,726
129991,192003,258010,-2.8390840148999996,-8.271987728200001,4.3609191885,727
130298,192108,258138,-3.062812928,-8.4167534955,4.3645084224,728
130503,192179,258127,-2.9036902251,-8.2420774457,4.3393837851,729
130155,192060,258072,-2.8965117573,-8.3078800672,4.3118663252,730
129177,191730,257857,-2.9826533709,-8.4131642616,4.3345981399,731
128286,191448,257723,-2.919243572,-8.1391860739,4.2616170506,732
128098,191315,257601,-2.8570301844,-8.3557365192,4.2652062845000005,733
128097,191272,257657,-2.9300112737000004,-8.2217384536,4.2723847523,734
128083,191303,257706,-3.0245277664,-8.3533436966,4.4063828179,735
128426,191362,257694,-2.8127629663000002,-8.4203427294,4.3274196721000004,736
128848,191491,257804,-3.0101708308,-8.3952180921,4.2915273330999995,737
129170,191589,257822,-3.0053851856000002,-8.2372918005,4.3322053173,738
129332,191661,257886,-3.0197421212,-8.2325061553,4.3274196721000004,739
129466,191723,257926,-2.8546373618,-8.1320076061,4.3489550755,740
129777,191787,257954,-2.9599215562,-8.2289169214,4.2616170506,741
130012,191893,257995,-2.9300112737000004,-8.360522164399999,4.3369909625,742
130255,191986,258077,-2.8127629663000002,-8.1332040174,4.237688824599999,743
130641,192109,258140,-2.8725835312999997,-8.3437724062,4.3010986235,744
131083,192210,258203,-2.7948167968,-8.3700934548,4.2448672924,745
131118,192235,258173,-2.8450660714,-8.3772719226,4.2819560427,746
130326,192015,258031,-2.7960132080999998,-8.3677006322,4.295116567,747
129532,191655,257873,-2.9359933301999996,-8.226524098799999,4.3022950348,748
128744,191438,257749,-2.8247270792999997,-8.352147285300001,4.2903309218,749
128754,191367,257674,-2.8977081686,-8.4023965599,4.2999022122,750
128912,191365,257716,-2.8426732488,-8.236095389199999,4.3118663252,751
128873,191409,257731,-2.8689942974,-8.2504523248,4.2783668087999995,752
129507,191498,257804,-2.8510481279,-8.3724862774,4.2903309218,753
129659,191618,257842,-2.8055844984999996,-8.2516487361,4.223331889,754
129818,191713,257915,-2.9455646206,-8.3198441802,4.353740720699999,755
130031,191757,257948,-2.7852455064000003,-8.3461652288,4.2508493489,756
130191,191836,258007,-2.8845476443,-8.3078800672,4.3214376156,757
130371,191914,258037,-2.7577280465,-8.2767733734,4.2065821308,758
130637,192023,258105,-2.6285156261,-8.1966138163,4.1730826144,759
131179,192150,258103,-2.7445675222,-8.0913296219,4.2747775749,760
131476,192249,258232,-2.7972096194,-8.2648092604,4.211367776,761
131641,192344,258299,-2.9551359109999997,-8.2444702683,4.402793583999999,762
131762,192372,258306,-2.9216363945999997,-8.262416437799999,4.2185462438,763
131309,192241,258207,-2.8199414341,-8.240881034400001,4.2927237444,764
130271,191896,257955,-2.8199414341,-8.2384882118,4.2759739861999995,765
129505,191591,257801,-2.8654050635,-8.2325061553,4.319044793,766
129406,191536,257772,-2.9036902251,-8.3018980107,4.4327038665,767
129255,191508,257790,-2.8211378454,-8.207381518,4.2771703975,768
129451,191582,257826,-2.8426732488,-8.4382888989,4.3022950348,769
130103,191655,257906,-2.8761727652,-8.3198441802,4.2999022122,770
130298,191787,258001,-2.7601208691,-8.3258262367,4.2520457602,771
130449,191842,258014,-2.9383861528,-8.338986761000001,4.4087756405,772
130592,191899,258108,-2.9682964353,-8.291130309,4.3381873738,773
130742,191953,258096,-2.8295127245,-8.293523131599999,4.3094735026,774
131046,192036,258183,-2.8474588940000003,-8.3485580514,4.2903309218,775
131414,192140,258194,-2.8450660714,-8.2743805508,4.2185462438,776
131624,192230,258288,-2.8187450228000004,-8.1678999451,4.2257247116,777
132003,192349,258379,-2.8474588940000003,-8.1810604694,4.2065821308,778
132339,192514,258403,-2.8845476443,-8.219345631,4.259224228,779
132526,192591,258437,-2.9228328059,-8.386843213,4.2568314054,780
132774,192604,258415,-2.9659036127,-8.352147285300001,4.2305103568,781
131848,192309,258251,-2.8630122409,-8.25523797,4.331008906,782
130445,191902,257996,-2.8905297008,-8.231309744,4.3417766077,783
129743,191608,257834,-2.8905297008,-8.3210405915,4.3465622529,784
129665,191493,257827,-3.1621150658999997,-8.450253011900001,4.1324046302,785
129865,191465,257813,-2.9647072014,-8.1415788965,4.4231325760999995,786
129843,191492,257847,-2.9862426048,-8.2420774457,4.3932222936,787
130352,191590,257857,-2.8522445392,-8.281559018600001,4.1958144290999995,788
130825,191708,257955,-2.9048866364,-8.2755769621,4.4015971727,789
131310,191770,258047,-2.823530668,-8.4119678503,4.2616170506,790
131424,191844,258049,-2.7242285301,-8.171489179,4.3597227772,791
131566,191902,258093,-2.8773691765,-8.4083786164,3.8859439023999998,792
131981,191979,258170,-3.1214370817,-8.362914987,3.7040893848,793
132178,191990,258120,-3.3188449462,-8.4777704718,4.1766718483,794
132557,192024,258186,-3.2446674455999998,-8.4083786164,4.4721854394000005,795
132875,192168,258208,-2.6333012713,-7.9046894591,4.1934216065,796
133389,192394,258344,-2.6069802227000003,-8.1894353485,3.9804603951,797
133631,192518,258454,-3.0711878071,-8.4251283746,3.9409788222,798
134043,192541,258438,-3.4037901484999997,-8.5208412786,4.6695933039,799
134420,192600,258523,-2.6344976826,-8.3090764785,4.4207397534999995,800
133753,192452,258375,-2.9144579268,-8.5005022865,4.0510486617999995,801
132355,192048,258066,-3.2243284535,-8.2169528084,4.1431723319,802
131593,191725,257942,-2.75174599,-8.204988695399999,4.2771703975,803
131413,191668,257930,-2.8570301844,-8.3126657124,4.1611185014,804
131281,191593,257880,-3.1238299043,-8.2863446638,4.0127635002,805
131465,191627,257892,-2.9371897415,-8.2899338977,4.1383866867,806
131887,191653,257976,-3.1716863562999995,-8.362914987,4.2915273330999995,807
132164,191757,258013,-2.9623143788,-8.249255913499999,4.208974953399999,808
132444,191819,258005,-3.0783662749,-8.2636128491,4.1826539048,809
132486,191906,258022,-2.8977081686,-8.1272219609,4.3046878574,810
132767,191999,258128,-3.0293134116,-8.2301133327,3.9852460403000003,811
132940,192064,258123,-3.146561719,-8.484948939599999,4.2987058009,812
133196,192126,258140,-2.6895326024,-8.087740388,4.3130627365,813
133544,192274,258311,-2.9551359109999997,-8.2863446638,4.2221354777,814
133858,192412,258309,-2.7852455064000003,-8.1092757914,4.1838503161,815
133923,192565,258414,-3.0329026454999997,-8.2217384536,4.1371902754,816
134283,192693,258530,-3.0759734523,-8.5005022865,4.139583098,817
134506,192743,258521,-3.0568308715,-8.4323068424,4.1491543884,818
134665,192764,258538,-3.0508488149999997,-8.3533436966,4.2568314054,819
133681,192551,258333,-2.9718856692,-8.252845147399999,4.2520457602,820
132412,192124,258113,-3.0221349438,-8.3700934548,4.2496529376,821
131693,191887,257986,-2.9539394997,-8.5232341012,4.2723847523,822
131723,191790,257982,-2.8223342567,-8.4251283746,4.1611185014,823
131696,191815,257935,-2.8474588940000003,-8.057830105499999,4.4829531411,824
132059,191900,258011,-2.8486553053,-7.902296636499999,4.474578262,825
132272,192006,258071,-2.823530668,-8.2995051881,4.2400816472,826
132489,192117,258180,-2.9946174839,-8.6225362391,4.0103706776,827
132693,192099,258170,-3.3152557123,-8.4693955927,4.1491543884,828
132599,192086,258147,-3.1716863562999995,-8.4263247859,4.1682969692,829
132685,192156,258128,-2.6333012713,-8.1427753078,4.2317067681000005,830
133067,192268,258227,-2.7349962318,-8.2480595022,4.283152454,831
133194,192388,258280,-3.0077780082,-8.2899338977,4.0414773714,832
133405,192507,258331,-3.0137600647,-8.1511501869,4.4973100767,833
133757,192680,258420,-2.9527430884,-8.2013994615,4.4039899953,834
134071,192749,258503,-2.8606194183,-8.3784683339,4.3118663252,835
134034,192774,258516,-2.9599215562,-8.316254946299999,4.0462630166,836
133056,192553,258353,-3.0065815969000003,-8.3246298254,4.1838503161,837
131703,192134,258098,-3.0065815969000003,-8.3282190593,4.295116567,838
131063,191816,257939,-2.9024938138,-8.2468630909,4.3381873738,839
130931,191772,257872,-2.7720849821,-8.3617185757,4.2687955184,840
130906,191739,257905,-2.8175486115,-8.2887374864,4.1527436223,841
130858,191779,257970,-3.0400811133000003,-8.315058535,4.259224228,842
131370,191895,257988,-2.9970103065,-8.316254946299999,4.2687955184,843
131659,192022,258088,-2.9886354273999998,-8.2959159542,4.258027816699999,844
131803,192102,258093,-2.8283163132,-8.3377903497,4.2975093896,845
131824,192127,258097,-2.9862426048,-8.2648092604,4.1431723319,846
132004,192200,258152,-2.8582265956999997,-8.2420774457,4.140779509300001,847
132241,192248,258190,-3.0675985732,-8.4119678503,4.3369909625,848
132668,192382,258225,-3.038884702,-8.0889367993,4.3393837851,849
132648,192527,258340,-3.0652057506,-8.2971123655,4.319044793,850
133026,192648,258369,-2.99102825,-8.1918281711,4.1982072517,851
133195,192779,258421,-3.062812928,-8.3282190593,4.353740720699999,852
133555,192830,258483,-3.014956476,-8.2372918005,4.1946180178,853
133210,192810,258464,-2.9288148624,-8.2109707519,4.2723847523,854
131911,192450,258218,-2.8618158296000002,-8.2695949056,4.2759739861999995,855
130556,192082,257968,-2.8498517166,-8.2863446638,4.2807596314,856
129948,191879,257912,-3.098705267,-8.3461652288,4.3118663252,857
130131,191800,257888,-2.9252256285000002,-8.0650085733,4.199403663,858
130128,191838,257888,-2.9300112737000004,-8.2648092604,4.1730826144,859
130318,191890,257923,-3.0460631697999996,-8.3365939384,4.259224228,860
130657,191981,257989,-2.9982067177999996,-8.1535430095,4.353740720699999,861
130927,192118,258103,-2.9383861528,-8.2851482525,4.1922251952,862
131091,192207,258089,-2.9742784918,-8.239684623099999,4.2400816472,863
131195,192248,258156,-2.8821548217,-8.2480595022,4.258027816699999,864
131472,192360,258189,-2.9383861528,-8.2648092604,4.1802610821999995,865
131534,192468,258230,-2.9970103065,-8.434699665,4.2496529376,866
132004,192584,258271,-3.0209385325,-8.3413795836,4.3441694303,867
132243,192716,258363,-3.2638100264,-8.3138621237,4.2125641873,868
132361,192879,258464,-2.8546373618,-8.362914987,4.2771703975,869
132754,192988,258470,-2.9766713144,-8.3593257531,4.3525443094,870
133159,193073,258571,-2.9288148624,-8.3007015994,4.211367776,871
132783,193062,258504,-2.9623143788,-8.2899338977,4.2364924133,872
131398,192735,258355,-3.0544380489000003,-8.1846497033,4.2520457602,873
130185,192513,258167,-2.8965117573,-8.3832539791,4.3274196721000004,874
129612,192330,258090,-3.0113672421,-8.4765740605,4.1970108404,875
129577,192316,258101,-2.7314069979,-8.2767733734,4.151547211,876
129664,192384,258109,-2.8558337731,-8.2109707519,4.3489550755,877
129899,192469,258145,-2.8989045799,-8.3485580514,4.2616170506,878
130163,192487,258221,-2.8211378454,-8.3365939384,4.2508493489,879
130534,192703,258289,-2.8654050635,-8.3617185757,4.247260115,880
130859,192846,258310,-2.6715864329,-8.303094422,4.2065821308,881
130802,192901,258374,-2.8725835312999997,-8.2516487361,4.258027816699999,882
130995,193021,258452,-2.8331019584000003,-8.3952180921,4.259224228,883
131274,193140,258472,-2.787638329,-8.338986761000001,4.2975093896,884
131573,193298,258525,-2.6931218363,-8.1918281711,4.2652062845000005,885
131742,193425,258618,-2.7984060307000003,-8.2827554299,4.1970108404,886
132237,193572,258748,-2.6739792555000004,-8.3700934548,4.382454591899999,887
132430,193709,258795,-2.8498517166,-8.4526458345,4.1898323726,888
132734,193772,258791,-2.7170500623000002,-8.2971123655,4.2388852359,889
131834,193670,258710,-2.8091737324,-8.3832539791,4.271188340999999,890
130561,193430,258538,-2.931207685,-8.226524098799999,4.237688824599999,891
129680,193279,258458,-2.7984060307000003,-8.3007015994,4.3250268494999995,892
129646,193251,258422,-2.7744778047,-8.3186477689,4.199403663,893
129907,193312,258477,-2.8522445392,-8.3342011158,4.1922251952,894
130108,193379,258552,-2.8247270792999997,-8.306683655899999,4.3130627365,895
130603,193480,258548,-2.9012974024999996,-8.2325061553,4.259224228,896
130871,193628,258613,-2.7314069979,-8.3581293418,4.211367776,897
131065,193713,258644,-2.8546373618,-8.262416437799999,4.2879380992,898
131025,193798,258687,-2.87138712,-8.252845147399999,4.2664026958,899
131190,193889,258755,-2.9048866364,-8.4777704718,4.3010986235,900
131323,194002,258789,-2.7649065143000002,-8.2743805508,4.2209390664,901
131741,194108,258807,-2.8211378454,-8.3054872446,4.3106699139,902
132140,194210,258871,-2.8402804262,-8.2480595022,4.1898323726,903
132325,194397,258954,-2.9407789753999998,-8.3461652288,4.3728833015,904
132628,194447,259022,-2.8271199019,-8.3437724062,4.2664026958,905
132568,194463,258989,-2.9359933301999996,-8.2612200265,4.3345981399,906
131665,194308,258831,-2.9491538545,-8.2420774457,4.127618985,907
130421,194149,258718,-2.7828526838,-8.279166196,4.2556349941,908
129925,194010,258700,-2.9228328059,-8.1942209937,4.3740797127999995,909
129505,193980,258643,-2.9527430884,-8.3007015994,4.1826539048,910
129593,193989,258643,-3.0568308715,-8.271987728200001,4.1024943476999995,911
129695,194046,258673,-2.9850461935,-8.3306118819,4.2807596314,912
130062,194129,258699,-2.9862426048,-8.204988695399999,4.1898323726,913
130299,194249,258724,-2.9802605483,-8.3856468017,4.2520457602,914
130587,194244,258761,-2.8390840148999996,-8.2145599858,4.3094735026,915
130642,194335,258750,-3.0293134116,-8.3557365192,4.30708068,916
130777,194351,258780,-2.9264220398,-8.219345631,4.3286160834,917
131048,194476,258803,-2.9108686929000003,-8.3318082932,4.1563328562,918
131187,194537,258869,-2.9144579268,-8.051848049,4.1802610821999995,919
131533,194610,258915,-2.9539394997,-8.1619178886,4.2532421715,920
131800,194722,258934,-2.87138712,-8.2683984943,4.2699919297,921
132242,194846,259006,-3.1058837348,-8.3533436966,4.2783668087999995,922
132333,194862,259031,-2.9156543381000004,-8.2588272039,4.1706897918,923
131772,194758,258964,-3.1250263156,-8.3258262367,4.2723847523,924
130806,194557,258831,-3.0017959517,-8.2875410751,4.2568314054,925
129798,194443,258720,-2.8749763539,-8.3054872446,4.3298124947,926
129412,194342,258672,-2.9288148624,-8.281559018600001,4.1970108404,927
129300,194332,258600,-3.1286155494999996,-8.1882389372,4.2771703975,928
129519,194363,258656,-3.0209385325,-8.3401831723,4.3118663252,929
129873,194416,258632,-2.9934210726,-8.137989662599999,4.3357945512,930
130245,194501,258715,-2.9694928465999997,-8.338986761000001,4.247260115,931
130602,194520,258713,-2.8725835312999997,-8.271987728200001,4.223331889,932
130495,194598,258800,-2.9922246613000003,-8.1798640581,4.2317067681000005,933
130733,194607,258748,-3.0412775246,-8.3210405915,4.1970108404,934
130965,194691,258809,-2.9431717980000003,-8.173882001600001,4.2699919297,935
131410,194731,258844,-3.1417760738,-8.1990066389,4.259224228,936
131340,194753,258835,-2.8522445392,-8.1535430095,4.127618985,937
131847,194858,258878,-2.9599215562,-8.2253276875,4.2568314054,938
132065,194954,258911,-2.7912275628999996,-8.362914987,4.2843488653,939
132194,195022,259026,-2.9623143788,-8.2181492197,4.2556349941,940
132623,195080,259035,-2.9012974024999996,-8.427521197199999,3.9924245080999996,941
132079,194941,258905,-2.9814569596,-8.3593257531,4.3250268494999995,942
131079,194743,258749,-2.8773691765,-8.291130309,4.3645084224,943
130047,194578,258668,-2.8546373618,-8.3102728898,4.208974953399999,944
129854,194494,258616,-2.7828526838,-8.2755769621,4.3286160834,945
129749,194450,258610,-2.9216363945999997,-8.3198441802,4.2508493489,946
129830,194494,258619,-2.9359933301999996,-8.3294154706,4.2329031794,947
130067,194505,258621,-2.8594230069999997,-8.2923267203,4.223331889,948
130554,194563,258685,-2.8127629663000002,-8.2301133327,4.2999022122,949
130917,194617,258676,-2.8737799425999997,-8.2205420423,4.2987058009,950
130862,194633,258715,-2.7912275628999996,-8.3222370028,4.2281175342,951
131051,194678,258685,-2.8295127245,-8.243273857,4.2161534212,952
131186,194744,258728,-2.9084758702999998,-8.404789382499999,4.1910287839,953
131448,194787,258759,-2.8067809098,-8.3198441802,4.271188340999999,954
131780,194883,258851,-2.8821548217,-8.2444702683,4.2747775749,955
131946,194958,258826,-2.8929225234,-8.240881034400001,4.402793583999999,956
132232,195002,258873,-2.8522445392,-8.3138621237,4.2747775749,957
132520,195071,258911,-2.8630122409,-8.422735552,4.1778682596,958
132816,195085,258861,-2.883351233,-8.2229348649,4.3010986235,959
132030,194907,258785,-2.9431717980000003,-8.2827554299,4.3022950348,960
130892,194719,258637,-2.7601208691,-8.3198441802,4.2879380992,961
130263,194549,258535,-2.8761727652,-8.386843213,4.223331889,962
129832,194434,258458,-2.7553352239,-8.185846114599999,4.1347974528,963
129891,194449,258534,-2.9491538545,-8.294719542900001,4.3812581806,964
130308,194463,258492,-2.8079773211,-8.2480595022,4.331008906,965
130511,194526,258532,-2.8689942974,-8.182256880699999,4.3609191885,966
131101,194561,258486,-2.8881368781999996,-8.3294154706,4.2400816472,967
131155,194576,258536,-2.8474588940000003,-8.2564343813,4.2819560427,968
131129,194596,258554,-2.7014967154,-8.2205420423,4.1934216065,969
131274,194701,258537,-2.7996024420000003,-8.4083786164,4.3345981399,970
131541,194688,258565,-2.8570301844,-8.294719542900001,4.2568314054,971
131750,194745,258617,-2.6009981662,-8.0889367993,4.1096728155,972
131993,194815,258653,-2.8845476443,-8.2648092604,4.211367776,973
132414,194923,258744,-2.9611179675,-8.2348989779,4.3513478981,974
132612,194969,258758,-2.8701907087,-8.3342011158,4.2053857195,975
132659,195006,258787,-2.823530668,-8.2648092604,4.1599220901,976
132193,194775,258614,-2.9383861528,-8.3569329305,4.2400816472,977
130733,194480,258444,-2.7744778047,-8.3054872446,4.2855452766,978
129813,194270,258342,-2.8570301844,-8.3126657124,4.353740720699999,979
129552,194135,258232,-2.8414768375,-8.3365939384,4.2675991071,980
129631,194093,258250,-2.9048866364,-8.2695949056,4.2568314054,981
129883,194056,258203,-2.9635107901000004,-8.2755769621,4.2520457602,982
130406,194075,258197,-2.9395825641,-8.4681991814,4.2999022122,983
130754,194147,258292,-2.9024938138,-8.2851482525,4.3298124947,984
131195,194142,258311,-2.9024938138,-8.271987728200001,4.2065821308,985
131207,194200,258277,-2.8773691765,-8.2755769621,4.247260115,986
131639,194208,258301,-2.9455646206,-8.3174513576,4.2723847523,987
131700,194276,258332,-3.0161528873,-8.4478601893,4.3393837851,988
132051,194312,258388,-2.8630122409,-8.2707913169,4.2699919297,989
132459,194369,258453,-2.9407789753999998,-8.373682688699999,4.3836510032,990
132782,194440,258495,-2.9455646206,-8.2121671632,4.1826539048,991
133084,194517,258533,-2.9001009912,-8.3928252695,4.387240237099999,992
133446,194584,258590,-3.0675985732,-8.3042908333,4.1599220901,993
133431,194565,258596,-2.8271199019,-8.3820575678,4.2795632201,994
132518,194344,258463,-2.9359933301999996,-8.2695949056,4.1970108404,995
130958,193987,258157,-2.8163522002,-8.1583286547,4.3585263658999995,996
130242,193745,258055,-2.9599215562,-8.239684623099999,4.1802610821999995,997
129947,193560,257980,-2.9479574432,-8.3700934548,4.211367776,998
129901,193510,257932,-2.8869404668999996,-8.391628858199999,4.3142591478000005,999
130066,193425,257912,-2.9551359109999997,-8.3246298254,4.2520457602,1000
130427,193495,257968,-2.9958138952,-8.2923267203,4.2987058009,1001
130676,193562,258012,-2.9862426048,-8.4083786164,4.223331889,1002
130901,193550,258031,-2.8953153460000003,-8.4000037373,4.2149570099,1003
130932,193577,258040,-2.8809584104000003,-8.291130309,4.1850467274,1004
131027,193606,258089,-2.8342983697,-8.2576307926,4.1922251952,1005
131345,193647,258113,-2.9838497821999996,-8.2755769621,4.223331889,1006
131612,193733,258190,-2.9120651042,-8.2564343813,4.1946180178,1007
131995,193812,258230,-2.8414768375,-8.2013994615,4.2664026958,1008
132221,193895,258278,-2.883351233,-8.1056865575,4.115654872,1009
132464,193959,258326,-3.0125636533999995,-8.2372918005,4.3154555591,1010
132823,194068,258414,-2.9168507494,-8.291130309,4.2305103568,1011
133007,194138,258446,-2.9527430884,-8.3054872446,4.1946180178,1012
133230,194126,258449,-2.9383861528,-8.391628858199999,4.2652062845000005,1013
132160,193874,258292,-3.1334011947,-8.2660056717,4.3010986235,1014
130562,193478,258051,-2.9108686929000003,-8.2372918005,4.3334017286,1015
129691,193197,257866,-2.7948167968,-8.3007015994,4.2209390664,1016
129560,193001,257807,-2.9587251449000003,-8.315058535,4.2963129783,1017
129399,192961,257762,-3.0939196218,-8.327022648,4.235296002,1018
129642,192944,257771,-2.9958138952,-8.3007015994,4.223331889,1019
130051,192994,257786,-2.931207685,-8.362914987,4.2735811636,1020
130358,193067,257915,-2.9934210726,-8.352147285300001,4.235296002,1021
130569,193110,257867,-2.87138712,-8.291130309,4.2329031794,1022
130572,193128,257954,-2.7972096194,-8.3593257531,4.211367776,1023
130759,193153,257993,-2.8283163132,-8.364111398299999,4.2520457602,1024
131053,193198,257984,-2.8378876036,-8.4071822051,4.2484565263,1025
131396,193295,258053,-2.8905297008,-8.352147285300001,4.2616170506,1026
131478,193394,258111,-2.9479574432,-8.182256880699999,4.2759739861999995,1027
131899,193469,258169,-2.7493531674,-8.1499537756,4.1982072517,1028
132174,193529,258203,-2.8953153460000003,-8.3856468017,4.1802610821999995,1029
132514,193640,258264,-2.8378876036,-8.2959159542,4.3716868902,1030
132832,193699,258296,-2.8271199019,-8.373682688699999,4.2819560427,1031
132627,193719,258314,-2.7565316351999996,-8.280362607299999,4.2388852359,1032
131946,193512,258180,-2.7661029256000003,-8.3964145034,4.2544385828,1033
130654,193137,257988,-2.7816562725,-8.2660056717,4.3776689467,1034
129613,192751,257842,-2.8043880872,-8.2683984943,4.1898323726,1035
129459,192731,257733,-2.6871397798,-8.243273857,4.0989051138,1036
129604,192726,257758,-2.9228328059,-8.2683984943,4.2664026958,1037
129881,192716,257826,-2.8881368781999996,-8.3677006322,4.2520457602,1038
130288,192813,257837,-2.9539394997,-8.169096356399999,4.1694933805000005,1039
130536,192898,257889,-2.7972096194,-8.281559018600001,4.2735811636,1040
130741,192938,257900,-2.9515466771,-8.3318082932,4.3489550755,1041
130752,192933,257925,-2.6979074815,-8.3724862774,4.342973019,1042
130970,192998,257912,-2.7026931267000003,-8.3246298254,4.2520457602,1043
131027,193071,258016,-2.823530668,-8.3042908333,4.2795632201,1044
131317,193140,258054,-2.7577280465,-8.2707913169,4.3381873738,1045
131636,193235,258140,-2.8749763539,-8.2229348649,4.1970108404,1046
131847,193314,258159,-2.75174599,-8.2157563971,4.2041893082,1047
132335,193417,258266,-3.0089744195,-8.2851482525,4.3022950348,1048
132453,193466,258288,-2.8414768375,-8.2564343813,4.2616170506,1049
131854,193305,258186,-2.8689942974,-8.4765740605,4.2329031794,1050
130538,192955,257942,-2.8414768375,-8.252845147399999,4.2496529376,1051
129587,192633,257796,-2.8498517166,-8.2133635745,4.319044793,1052
129139,192459,257690,-2.8917261120999997,-8.315058535,4.2161534212,1053
129103,192342,257655,-2.9060830476999997,-8.1726855903,4.1491543884,1054
129153,192364,257656,-2.8773691765,-8.2588272039,4.331008906,1055
129605,192429,257712,-2.8307091358,-8.2755769621,4.2556349941,1056
130043,192543,257759,-2.9898318387,-8.2253276875,4.3250268494999995,1057
130296,192632,257854,-2.8570301844,-8.2480595022,4.2257247116,1058
130576,192620,257830,-2.8546373618,-8.2157563971,4.235296002,1059
130701,192712,257847,-2.7996024420000003,-8.3437724062,4.2687955184,1060
130974,192759,257914,-2.9407789753999998,-8.2420774457,4.2759739861999995,1061
131150,192847,257955,-2.9024938138,-8.3294154706,4.3094735026,1062
131386,192936,258006,-2.8857440556,-8.2995051881,4.2436708811,1063
131915,193018,258107,-2.9946174839,-8.2779697847,4.2532421715,1064
132039,193147,258188,-2.7780670386,-8.2600236152,4.2855452766,1065
132485,193244,258230,-2.9587251449000003,-8.3246298254,4.271188340999999,1066
132727,193297,258255,-2.9012974024999996,-8.2516487361,4.2496529376,1067
132088,193096,258127,-2.9012974024999996,-8.2121671632,4.2664026958,1068
130602,192721,257898,-2.835494781,-8.1882389372,4.319044793,1069
129490,192323,257705,-2.8271199019,-8.291130309,4.259224228,1070
129239,192185,257634,-2.9623143788,-8.3330047045,4.140779509300001,1071
129216,192110,257617,-2.7744778047,-8.129614783500001,4.1611185014,1072
129417,192147,257608,-2.9431717980000003,-8.2731841395,4.2975093896,1073
129704,192165,257657,-2.9838497821999996,-8.291130309,4.2640098732,1074
130217,192280,257751,-2.967100024,-8.1451681304,4.199403663,1075
130432,192341,257758,-3.0640093393,-8.3533436966,4.2855452766,1076
130580,192423,257782,-3.0496524037,-8.2205420423,4.3405801963999995,1077
130790,192486,257830,-2.8761727652,-8.1463645417,4.2664026958,1078
131009,192518,257884,-2.8773691765,-8.195417404999999,4.2771703975,1079
131343,192584,257877,-2.9718856692,-8.405985793800001,4.3525443094,1080
131597,192670,257998,-2.8809584104000003,-8.2301133327,4.283152454,1081
131861,192761,258000,-2.9180471607,-8.075776275,4.2077785421,1082
132114,192864,258094,-2.9324040963,-8.281559018600001,4.2879380992,1083
132449,192978,258179,-2.9072794589999997,-8.4155570842,4.2927237444,1084
132629,193013,258191,-2.8450660714,-8.3665042209,4.2532421715,1085
131994,192816,258053,-2.9551359109999997,-8.1942209937,4.3250268494999995,1086
130578,192372,257819,-2.9503502657999996,-8.3449688175,4.3334017286,1087
129666,192072,257690,-2.8450660714,-8.398807326,4.3489550755,1088
129309,191925,257570,-2.9778677257000004,-8.3054872446,4.2305103568,1089
129325,191883,257577,-2.8127629663000002,-8.293523131599999,4.242474469799999,1090
129490,191901,257641,-2.9096722816000002,-8.2743805508,4.2664026958,1091
129753,191941,257659,-2.8773691765,-8.3114693011,4.3094735026,1092
130197,192060,257716,-3.0352954681,-8.3174513576,4.3441694303,1093
130521,192161,257756,-2.9359933301999996,-8.1798640581,4.353740720699999,1094
130672,192200,257807,-2.8175486115,-8.236095389199999,4.3381873738,1095
130792,192226,257858,-2.8737799425999997,-8.2612200265,4.242474469799999,1096
130974,192350,257873,-2.8941189347,-8.2995051881,4.387240237099999,1097
131063,192375,257951,-2.7074787719,-8.3557365192,4.3178483817,1098
131563,192486,257989,-2.9024938138,-8.129614783500001,4.1718862031,1099
131936,192582,258056,-2.9395825641,-8.2468630909,4.3441694303,1100
132127,192662,258112,-2.8378876036,-8.2683984943,4.2927237444,1101
132385,192739,258174,-3.0436703472,-8.2229348649,4.1862431387,1102
132616,192794,258254,-2.8582265956999997,-8.3246298254,4.2544385828,1103
131836,192592,258080,-2.8438696600999998,-8.315058535,4.2783668087999995,1104
130593,192195,257834,-2.8426732488,-8.262416437799999,4.3453658416,1105
129682,191889,257682,-2.7445675222,-8.2037922841,4.2735811636,1106
129552,191781,257634,-2.9587251449000003,-8.4562350684,4.2448672924,1107
129593,191811,257659,-2.8307091358,-8.2289169214,4.2496529376,1108
129760,191830,257709,-2.8187450228000004,-8.2743805508,4.3716868902,1109
130134,191919,257762,-3.1274191382,-8.2612200265,4.3704904789,1110
130313,191999,257851,-2.9120651042,-8.2504523248,4.354937132,1111
130698,192050,257890,-2.8019952646,-8.279166196,4.320241204299999,1112
130801,192117,257839,-2.7948167968,-8.350950873999999,4.387240237099999,1113
130864,192113,257914,-2.7577280465,-8.1978102276,4.4973100767,1114
131197,192160,257989,-2.9862426048,-8.115257847899999,4.2759739861999995,1115
131448,192262,257943,-2.7170500623000002,-8.25523797,4.2604206393,1116
131536,192345,258082,-2.8666014748,-8.1523465982,4.235296002,1117
132009,192459,258171,-2.8953153460000003,-8.2863446638,4.320241204299999,1118
132193,192557,258155,-2.8977081686,-8.3748791,4.4195433422,1119
132280,192585,258219,-2.8462624827,-8.2468630909,4.3322053173,1120
131560,192373,258050,-2.9934210726,-8.2648092604,4.2568314054,1121
130247,192029,257825,-2.9024938138,-8.3102728898,4.3441694303,1122
129398,191659,257657,-2.8701907087,-8.3174513576,4.382454591899999,1123
129115,191584,257632,-2.9072794589999997,-8.3593257531,4.402793583999999,1124
129218,191570,257613,-2.87138712,-8.2121671632,4.3214376156,1125
129338,191590,257712,-2.9527430884,-8.3198441802,4.283152454,1126
129821,191724,257787,-2.9551359109999997,-8.3078800672,4.295116567,1127
130072,191842,257823,-3.0951160330999996,-8.25523797,4.2400816472,1128
130203,191915,257893,-2.9718856692,-8.147560953,4.3154555591,1129
130372,191898,257920,-2.9886354273999998,-8.3856468017,4.3465622529,1130
130498,191940,257928,-2.7792634499,-8.2983087768,4.1814574935,1131
130757,192048,257989,-2.9946174839,-8.271987728200001,4.235296002,1132
130894,192149,257992,-2.9156543381000004,-8.2588272039,4.295116567,1133
131166,192215,258065,-2.8331019584000003,-8.1272219609,4.1766718483,1134
131512,192335,258141,-2.9336005076,-8.219345631,4.2616170506,1135
131915,192475,258191,-2.9216363945999997,-8.2133635745,4.347758664200001,1136
132155,192551,258290,-2.8893332895,-8.3413795836,4.2041893082,1137
132238,192554,258283,-2.8689942974,-8.338986761000001,4.2305103568,1138
130858,192253,258066,-3.0005995404,-8.195417404999999,4.2771703975,1139
129473,191826,257824,-2.8725835312999997,-8.2600236152,4.3082770913,1140
128557,191552,257693,-2.8438696600999998,-8.3114693011,4.3585263658999995,1141
128444,191455,257697,-2.9934210726,-8.3007015994,4.271188340999999,1142
128245,191445,257684,-2.8654050635,-8.303094422,4.3118663252,1143
128609,191469,257670,-3.014956476,-8.2456666796,4.295116567,1144
128864,191567,257794,-3.0077780082,-8.2959159542,4.3238304382,1145
129055,191682,257835,-2.8666014748,-8.1583286547,4.283152454,1146
129329,191732,257847,-2.8570301844,-8.219345631,4.2281175342,1147
129343,191791,257894,-3.0041887742999998,-8.239684623099999,4.3716868902,1148
129633,191817,257921,-2.9084758702999998,-8.2887374864,4.3645084224,1149
129863,191915,257981,-2.9072794589999997,-8.2899338977,4.2687955184,1150
130102,191965,257989,-3.0340990568,-8.3533436966,4.3992043501,1151
130336,192094,258128,-2.8546373618,-8.1463645417,4.1671005579,1152
130801,192176,258138,-3.0089744195,-8.303094422,4.295116567,1153
131010,192302,258233,-2.7649065143000002,-8.2863446638,4.3680976563,1154
131452,192401,258276,-3.0317062341999996,-8.281559018600001,4.4578285038,1155
131502,192441,258286,-2.9694928465999997,-8.249255913499999,4.2903309218,1156
130624,192274,258170,-2.9706892578999997,-8.2384882118,4.3034914461,1157
129080,191863,257890,-2.9958138952,-8.2241312762,4.3154555591,1158
128101,191558,257815,-2.9144579268,-8.1978102276,4.2604206393,1159
127995,191462,257729,-3.0101708308,-8.2707913169,4.1623149127,1160
127864,191413,257717,-2.8953153460000003,-8.1786676468,4.271188340999999,1161
127990,191459,257760,-2.8606194183,-8.2013994615,4.283152454,1162
128388,191499,257764,-2.9682964353,-8.2002030502,4.3357945512,1163
128953,191628,257900,-2.9024938138,-8.262416437799999,4.2281175342,1164
129151,191691,257945,-2.9359933301999996,-8.3844503904,4.247260115,1165
129078,191745,257946,-2.8139593776000003,-8.182256880699999,4.3621155998,1166
129305,191827,257960,-2.8139593776000003,-8.293523131599999,4.3800617693,1167
129536,191872,258009,-2.9479574432,-8.3593257531,4.3094735026,1168
129903,191935,258099,-2.9120651042,-8.2013994615,4.3046878574,1169
130303,192080,258127,-2.8953153460000003,-8.2157563971,4.242474469799999,1170
130565,192172,258204,-2.8749763539,-8.063812162,4.3142591478000005,1171
130739,192296,258264,-2.7661029256000003,-8.2695949056,4.3860438258,1172
131098,192384,258307,-2.8175486115,-8.4442709554,4.208974953399999,1173
131318,192409,258359,-2.8965117573,-8.2061851067,4.2544385828,1174
130621,192289,258299,-3.0317062341999996,-8.2971123655,4.366901245,1175
129311,191921,258074,-2.7744778047,-8.1583286547,4.295116567,1176
128405,191693,257874,-2.9455646206,-8.281559018600001,4.2879380992,1177
128319,191541,257816,-2.8618158296000002,-8.3856468017,4.3633120111,1178
128547,191553,257821,-2.9395825641,-8.1678999451,4.3405801963999995,1179
128660,191598,257896,-2.7696921595,-8.2695949056,4.4398823343,1180
128902,191682,257943,-2.8881368781999996,-8.137989662599999,4.3561335433,1181
129504,191800,258060,-2.7828526838,-8.3413795836,4.347758664200001,1182
129755,191877,258104,-2.9611179675,-8.1774712355,4.2568314054,1183
129758,191936,258080,-2.8809584104000003,-8.3090764785,4.3106699139,1184
130012,191967,258102,-2.7541388126,-8.254041558700001,4.258027816699999,1185
130112,192015,258132,-2.8546373618,-8.3748791,4.3573299546,1186
130409,192113,258214,-2.8689942974,-8.3018980107,4.4183469309,1187
130797,192214,258267,-3.0652057506,-8.459824302300001,4.4327038665,1188
130952,192323,258262,-2.9288148624,-8.2348989779,4.2652062845000005,1189
131606,192422,258358,-3.0616165167,-8.3330047045,4.4697926167999995,1190
131705,192505,258408,-2.9575287336000002,-8.294719542900001,4.2999022122,1191
131492,192469,258375,-2.9527430884,-8.3078800672,4.3238304382,1192
130183,192184,258193,-2.8414768375,-8.2971123655,4.331008906,1193
129204,191777,257944,-2.8893332895,-8.303094422,4.378865358,1194
128797,191590,257858,-2.8546373618,-8.4167534955,4.3262232608,1195
128748,191543,257857,-3.0041887742999998,-8.3557365192,4.2879380992,1196
128900,191558,257866,-2.8319055471,-8.1918281711,4.4063828179,1197
129162,191618,257932,-2.8689942974,-8.3198441802,4.3896330597,1198
129606,191714,257968,-2.9527430884,-8.252845147399999,4.342973019,1199
129867,191821,258088,-2.8881368781999996,-8.227720510100001,4.2903309218,1200
130117,191912,258089,-2.9455646206,-8.2337025666,4.2999022122,1201
130251,191945,258115,-2.931207685,-8.25523797,4.3956151162,1202
130390,192035,258157,-2.9156543381000004,-8.2217384536,4.3465622529,1203
130818,192129,258192,-2.8893332895,-8.3246298254,4.3118663252,1204
131043,192217,258256,-2.8582265956999997,-8.3449688175,4.2640098732,1205
131459,192346,258288,-2.9479574432,-8.352147285300001,4.4757746733,1206
131717,192414,258393,-2.9324040963,-8.327022648,4.223331889,1207
132064,192579,258372,-3.0687949845,-8.271987728200001,4.4494536247,1208
132231,192615,258477,-2.8725835312999997,-8.3413795836,4.3166519704,1209
132365,192610,258463,-2.9862426048,-8.1798640581,4.1599220901,1210
131354,192376,258292,-3.0305098229,-8.185846114599999,4.3573299546,1211
129949,191996,258063,-2.9575287336000002,-8.2743805508,4.30708068,1212
129460,191741,257940,-2.9479574432,-8.271987728200001,4.3609191885,1213
129503,191653,257918,-2.9383861528,-8.3581293418,4.2855452766,1214
129559,191681,257968,-2.9623143788,-8.2660056717,4.3968115275,1215
129726,191708,257991,-2.9395825641,-8.2205420423,4.3585263658999995,1216
130106,191823,258049,-3.0436703472,-8.1667035338,4.2807596314,1217
130381,191935,258102,-3.014956476,-8.293523131599999,4.4195433422,1218
130929,192048,258132,-2.9647072014,-8.2085779293,4.2999022122,1219
131004,192070,258199,-2.9204399833,-8.3581293418,4.3345981399,1220
131076,192156,258215,-2.9647072014,-8.262416437799999,4.2975093896,1221
131410,192213,258218,-3.0221349438,-8.2348989779,4.2999022122,1222
131862,192316,258275,-2.8725835312999997,-8.2456666796,4.3130627365,1223
131972,192443,258328,-3.1525437755,-8.239684623099999,4.3680976563,1224
132464,192549,258442,-2.9575287336000002,-8.1990066389,4.2759739861999995,1225
132666,192641,258491,-2.9001009912,-8.2085779293,4.3094735026,1226
133049,192783,258604,-2.9467610319,-8.2767733734,4.3118663252,1227
133384,192868,258581,-3.0592236941,-8.360522164399999,4.3860438258,1228
133491,192881,258643,-2.8474588940000003,-8.3365939384,4.2448672924,1229
133001,192771,258529,-3.0759734523,-8.249255913499999,4.295116567,1230
131559,192384,258329,-2.9120651042,-8.2743805508,4.4099720518000005,1231
130657,192041,258101,-2.8761727652,-8.249255913499999,4.2664026958,1232
130423,191911,258017,-2.8211378454,-8.2660056717,4.237688824599999,1233
130388,191910,258024,-2.87138712,-8.2480595022,4.2759739861999995,1234
130596,191937,258118,-2.9838497821999996,-8.3126657124,4.319044793,1235
130772,191996,258142,-2.9551359109999997,-8.279166196,4.3214376156,1236
131131,192110,258202,-2.7840490951,-8.1726855903,4.319044793,1237
131377,192188,258278,-2.7625136916999997,-8.243273857,4.2520457602,1238
131370,192250,258307,-2.8199414341,-8.25523797,4.366901245,1239
131716,192296,258245,-2.8199414341,-8.3437724062,4.2759739861999995,1240
131801,192336,258289,-2.8115665549999997,-8.1990066389,4.3944187049,1241
132035,192435,258368,-2.9455646206,-8.4335032537,4.3405801963999995,1242
132224,192520,258401,-2.9778677257000004,-8.3413795836,4.3381873738,1243
132637,192581,258489,-2.7218357075,-8.2516487361,4.3704904789,1244
132969,192749,258501,-2.9120651042,-8.3677006322,4.3836510032,1245
133190,192862,258621,-2.7888347403,-8.1009009123,4.4015971727,1246
133429,192918,258629,-2.883351233,-8.2348989779,4.2987058009,1247
133619,192961,258674,-2.9467610319,-8.315058535,4.3920258823,1248
132726,192769,258498,-2.9288148624,-8.267202082999999,4.3597227772,1249
131669,192431,258260,-2.7218357075,-8.306683655899999,4.3812581806,1250
130851,192159,258147,-2.8534409504999996,-8.2420774457,4.3405801963999995,1251
130802,192100,258105,-2.8977081686,-8.352147285300001,4.3692940676,1252
130887,192096,258146,-2.8486553053,-8.2648092604,4.4757746733,1253
131075,192138,258160,-2.8366911923,-8.2695949056,4.3214376156,1254
131336,192263,258217,-2.8043880872,-8.2576307926,4.3633120111,1255
131783,192361,258305,-2.8378876036,-8.2731841395,4.3094735026,1256
131788,192402,258402,-2.7900311516,-8.1176506705,4.3692940676,1257
132001,192420,258341,-2.7625136916999997,-8.315058535,4.4099720518000005,1258
132078,192503,258341,-2.8211378454,-8.2181492197,4.3585263658999995,1259
132213,192558,258399,-2.823530668,-8.2253276875,4.2460637037,1260
132468,192669,258487,-2.8031916759,-8.2731841395,4.3525443094,1261
132730,192750,258486,-2.8486553053,-8.2325061553,4.3250268494999995,1262
132991,192839,258572,-2.7684957482,-8.3377903497,4.4135612857,1263
133283,192958,258631,-2.9336005076,-8.419146318100001,4.5068813671,1264
133487,193010,258678,-2.7828526838,-8.3090764785,4.3010986235,1265
133241,192974,258591,-2.7720849821,-8.2683984943,4.2616170506,1266
132027,192560,258362,-2.8211378454,-8.254041558700001,4.438685923,1267
130760,192190,258125,-2.8522445392,-8.2133635745,4.4255253987,1268
130104,192009,258009,-2.9096722816000002,-8.4957166413,4.3357945512,1269
130101,191956,257985,-2.7577280465,-8.0135628874,4.3322053173,1270
130029,191950,258038,-2.8905297008,-8.3222370028,4.3764725354000005,1271
130465,191993,258090,-2.8366911923,-8.3198441802,4.3513478981,1272
130667,192133,258130,-3.0065815969000003,-8.2456666796,4.354937132,1273
131074,192235,258187,-2.8522445392,-8.0793655089,4.2065821308,1274
130894,192249,258200,-2.8630122409,-8.2851482525,4.2843488653,1275
131169,192302,258235,-2.9802605483,-8.2085779293,4.4099720518000005,1276
131275,192403,258259,-2.967100024,-8.2241312762,4.2963129783,1277
131556,192470,258298,-2.9180471607,-8.2983087768,4.4303110439,1278
131620,192577,258396,-2.9623143788,-8.352147285300001,4.366901245,1279
131766,192666,258416,-3.1429724850999996,-8.391628858199999,4.4099720518000005,1280
132130,192776,258492,-2.8737799425999997,-8.2444702683,4.235296002,1281
132489,192843,258551,-3.0077780082,-8.2648092604,4.4291146326,1282
132825,192943,258571,-2.9036902251,-8.3665042209,4.30708068,1283
132422,192851,258530,-2.8821548217,-8.281559018600001,4.2544385828,1284
131095,192508,258276,-3.0029923629999997,-8.227720510100001,4.3178483817,1285
129713,192098,258050,-2.9874390161,-8.3318082932,4.3812581806,1286
128991,191846,257970,-3.0640093393,-8.3318082932,4.331008906,1287
128757,191720,257896,-2.9371897415,-8.2851482525,4.3453658416,1288
128815,191770,257919,-2.919243572,-8.2779697847,4.4195433422,1289
129072,191826,257920,-2.9288148624,-8.170292767700001,4.415954108299999,1290
129259,191924,257999,-2.9802605483,-8.2013994615,4.259224228,1291
129559,192039,258040,-2.8510481279,-8.1894353485,4.2616170506,1292
129733,192073,258063,-2.9659036127,-8.3533436966,4.3046878574,1293
129783,192135,258107,-2.9766713144,-8.1643107112,4.4949172541,1294
129880,192203,258114,-2.8151557889,-8.252845147399999,4.271188340999999,1295
130147,192309,258194,-2.9336005076,-8.2169528084,4.3094735026,1296
130456,192388,258240,-2.9898318387,-8.240881034400001,4.3501514868,1297
130460,192376,258254,-2.9575287336000002,-8.2456666796,4.242474469799999,1298
129219,192125,258057,-3.0556344602,-8.271987728200001,4.4063828179,1299
128089,191685,257832,-2.9216363945999997,-8.1619178886,4.3465622529,1300
127523,191540,257736,-2.9491538545,-8.281559018600001,4.2149570099,1301
127570,191517,257727,-2.8426732488,-8.2660056717,4.2185462438,1302
127742,191576,257767,-2.931207685,-8.1523465982,4.3357945512,1303
128252,191651,257807,-2.8677978860999995,-8.2157563971,4.354937132,1304
128796,191779,257911,-2.8642086522,-8.3126657124,4.3585263658999995,1305
129067,191906,257976,-2.9347969189,-8.1655071225,4.3154555591,1306
129171,191946,257926,-2.8474588940000003,-8.2839518412,4.3633120111,1307
129274,191998,257994,-2.9180471607,-8.170292767700001,4.4590249151000005,1308
129476,192047,258063,-2.9395825641,-8.1200434931,4.3525443094,1309
129708,192146,258106,-2.8450660714,-8.1846497033,4.390829471,1310
130107,192235,258164,-2.9264220398,-8.262416437799999,4.387240237099999,1311
130390,192401,258222,-2.7505495787000003,-8.2504523248,4.3465622529,1312
130734,192463,258276,-2.8881368781999996,-8.2887374864,4.3322053173,1313
131013,192600,258390,-2.7529424013,-8.2037922841,4.2759739861999995,1314
131544,192689,258416,-2.8797619991,-8.3294154706,4.3992043501,1315
131852,192804,258491,-2.8893332895,-8.364111398299999,4.3022950348,1316
132089,192907,258543,-2.5782663514999995,-7.8927253461,4.1611185014,1317
132361,192998,258578,-2.8175486115,-8.111668614,4.3130627365,1318
132841,193122,258656,-2.6715864329,-8.1511501869,4.4123648744,1319
132860,193198,258654,-2.8091737324,-8.3353975271,4.4004007614,1320
133104,193244,258761,-2.8295127245,-8.2851482525,4.2927237444,1321
131859,192943,258522,-2.7696921595,-8.271987728200001,4.4255253987,1322
129985,192430,258271,-2.883351233,-8.1655071225,4.3944187049,1323
128913,192124,258049,-2.7206392962,-8.271987728200001,4.331008906,1324
128691,191952,257989,-2.6524438520999998,-8.3413795836,4.3238304382,1325
128655,191948,257977,-2.9395825641,-8.236095389199999,4.4542392699,1326
128995,191985,258047,-2.7684957482,-8.3234334141,4.3334017286,1327
129301,192063,258069,-2.8103701436999997,-8.2839518412,4.319044793,1328
129587,192139,258095,-2.7194428849,-8.2480595022,4.3142591478000005,1329
129873,192208,258150,-2.7912275628999996,-8.1870425259,4.402793583999999,1330
129792,192226,258167,-2.7421746995999996,-8.2648092604,4.347758664200001,1331
129842,192272,258152,-2.8773691765,-8.2337025666,4.3585263658999995,1332
130219,192300,258187,-2.8905297008,-8.3700934548,4.3776689467,1333
130421,192364,258214,-2.9024938138,-8.3976109147,4.353740720699999,1334
130703,192415,258250,-2.9898318387,-8.3700934548,4.4757746733,1335
131139,192549,258362,-2.703889538,-8.3222370028,4.283152454,1336
131367,192640,258403,-2.9647072014,-8.3712898661,4.5451665287,1337
131694,192716,258441,-2.7732813934,-8.2061851067,4.3118663252,1338
131464,192662,258405,-2.8905297008,-8.267202082999999,4.4063828179,1339
130023,192308,258186,-2.8725835312999997,-8.3078800672,4.319044793,1340
128714,191871,257929,-2.8127629663000002,-8.2743805508,4.3776689467,1341
128304,191678,257797,-2.8749763539,-8.1942209937,4.2640098732,1342
128227,191595,257800,-2.8055844984999996,-8.2707913169,4.3800617693,1343
128298,191646,257826,-2.9575287336000002,-8.2420774457,4.3812581806,1344
128576,191662,257817,-2.9359933301999996,-8.3724862774,4.342973019,1345
129108,191772,257919,-2.7996024420000003,-8.207381518,4.354937132,1346
129375,191911,257961,-2.8319055471,-8.291130309,4.4015971727,1347
129445,191938,258001,-2.9754749031,-8.350950873999999,4.4638105603,1348
129516,191995,258044,-3.0233313551,-8.3569329305,4.3764725354000005,1349
129680,192035,258033,-2.8857440556,-8.1104722027,4.3944187049,1350
129999,192137,258068,-2.8295127245,-8.2372918005,4.4063828179,1351
130279,192207,258134,-2.835494781,-8.0147592987,4.3142591478000005,1352
130497,192295,258205,-2.8283163132,-8.2731841395,4.2735811636,1353
130939,192427,258306,-2.8378876036,-8.2002030502,4.366901245,1354
131084,192509,258276,-3.0317062341999996,-8.1966138163,4.3094735026,1355
131272,192525,258350,-2.8881368781999996,-8.391628858199999,4.2975093896,1356
129997,192277,258151,-3.0113672421,-8.2636128491,4.3633120111,1357
128495,191812,257859,-3.0125636533999995,-8.1320076061,4.414757697,1358
127757,191491,257694,-2.7254249414,-8.1631142999,4.3094735026,1359
127449,191380,257712,-2.9814569596,-8.1272219609,4.3262232608,1360
127550,191390,257653,-2.8295127245,-8.306683655899999,4.3441694303,1361
127771,191355,257647,-2.8486553053,-8.2863446638,4.3597227772,1362
127891,191426,257703,-3.0281170003,-8.25523797,4.3597227772,1363
128404,191517,257756,-2.7972096194,-8.2767733734,4.4039899953,1364
128650,191577,257793,-3.0125636533999995,-8.293523131599999,4.3609191885,1365
128520,191632,257784,-2.8881368781999996,-8.1678999451,4.3142591478000005,1366
128625,191687,257825,-2.9276184511,-8.1655071225,4.2975093896,1367
128943,191752,257873,-2.9706892578999997,-8.2564343813,4.3728833015,1368
129236,191786,257902,-2.9694928465999997,-8.3940216808,4.3453658416,1369
129318,191918,257940,-3.0412775246,-8.3353975271,4.366901245,1370
129787,192016,258030,-2.7888347403,-8.25523797,4.4004007614,1371
129893,192100,258020,-3.1286155494999996,-8.3940216808,4.3034914461,1372
130314,192196,258106,-2.9336005076,-8.3174513576,4.3728833015,1373
129646,192109,258038,-2.8139593776000003,-8.2325061553,4.2508493489,1374
128357,191693,257799,-3.134597606,-8.1930245824,4.390829471,1375
127132,191215,257588,-2.8390840148999996,-8.2899338977,4.342973019,1376
126707,191107,257510,-2.823530668,-8.2384882118,4.2783668087999995,1377
126732,191049,257442,-2.8546373618,-8.183453292,4.283152454,1378
126880,191010,257479,-2.979064137,-8.2504523248,4.3417766077,1379
126953,191035,257498,-2.8259234905999997,-8.160721477300001,4.4291146326,1380
127422,191169,257558,-2.9575287336000002,-8.4131642616,4.1766718483,1381
127755,191243,257593,-2.8953153460000003,-8.160721477300001,4.3513478981,1382
127672,191305,257570,-2.8737799425999997,-8.1583286547,4.4614177377,1383
127679,191316,257570,-2.8630122409,-8.1882389372,4.3513478981,1384
128061,191319,257609,-2.8259234905999997,-8.3437724062,4.3357945512,1385
128279,191423,257643,-2.9922246613000003,-8.2133635745,4.3860438258,1386
128433,191523,257734,-2.979064137,-8.2564343813,4.3118663252,1387
128624,191660,257746,-2.7003003040999998,-8.1631142999,4.4111684631,1388
129070,191732,257851,-2.8067809098,-8.3461652288,4.4219361648,1389
129261,191792,257875,-2.9012974024999996,-8.2959159542,4.3680976563,1390
129000,191734,257837,-2.8307091358,-8.207381518,4.1946180178,1391
127904,191363,257666,-2.9108686929000003,-8.2025958728,4.347758664200001,1392
126733,191004,257442,-2.7936203855,-8.226524098799999,4.3154555591,1393
126439,190846,257355,-2.7589244578,-8.1367932513,4.2616170506,1394
126537,190809,257305,-2.8606194183,-8.155935832099999,4.4518464473,1395
126497,190794,257382,-2.7744778047,-8.3437724062,4.402793583999999,1396
126990,190849,257439,-2.823530668,-8.373682688699999,4.3118663252,1397
127286,190995,257445,-2.703889538,-8.2061851067,4.4398823343,1398
127411,191034,257485,-2.7744778047,-8.271987728200001,4.3561335433,1399
127458,191073,257457,-2.8307091358,-8.240881034400001,4.3968115275,1400
127554,191113,257463,-2.7804598612,-8.0889367993,4.3022950348,1401
127855,191136,257526,-2.8618158296000002,-8.1439717191,4.2664026958,1402
128020,191233,257568,-2.775674216,-8.2384882118,4.382454591899999,1403
128317,191345,257612,-2.8618158296000002,-8.2827554299,4.320241204299999,1404
128645,191430,257679,-2.7637101029999998,-8.25523797,4.3142591478000005,1405
129045,191552,257789,-2.9096722816000002,-8.2648092604,4.42672181,1406
129132,191582,257799,-2.8606194183,-8.171489179,4.2687955184,1407
128436,191457,257696,-2.9455646206,-8.3282190593,4.2999022122,1408
127213,191030,257430,-2.9886354273999998,-8.236095389199999,4.4697926167999995,1409
126442,190706,257262,-2.8582265956999997,-8.2767733734,4.3884366484,1410
126267,190591,257210,-2.9048866364,-8.2121671632,4.2903309218,1411
126277,190543,257223,-2.8199414341,-8.2157563971,4.3609191885,1412
126524,190495,257175,-3.0795626862,-8.3796647452,4.3980079388,1413
126529,190598,257291,-2.9060830476999997,-8.2181492197,4.3716868902,1414
127067,190730,257339,-2.8534409504999996,-8.2648092604,4.3405801963999995,1415
127343,190829,257343,-2.9503502657999996,-8.3246298254,4.2687955184,1416
127396,190853,257377,-2.9575287336000002,-8.3365939384,4.3345981399,1417
127441,190883,257344,-2.8797619991,-8.1870425259,4.4183469309,1418
127788,190960,257453,-2.7804598612,-8.262416437799999,4.3597227772,1419
128070,191053,257529,-2.8582265956999997,-8.2588272039,4.3046878574,1420
128379,191168,257583,-2.9371897415,-8.2301133327,4.4350966891,1421
128639,191257,257634,-2.8486553053,-8.2241312762,4.2759739861999995,1422
129014,191402,257725,-2.8905297008,-8.1678999451,4.2855452766,1423
129250,191478,257762,-3.0077780082,-8.231309744,4.2747775749,1424
129697,191573,257828,-2.9001009912,-8.1044901462,4.3405801963999995,1425
129500,191604,257805,-2.9886354273999998,-8.3306118819,4.2927237444,1426
128505,191287,257658,-2.9659036127,-8.2456666796,4.30708068,1427
127425,190859,257383,-2.9096722816000002,-8.099704501,4.3501514868,1428
127053,190624,257286,-2.8941189347,-8.2037922841,4.3058842687,1429
126971,190565,257264,-2.99102825,-8.204988695399999,4.2640098732,1430
126874,190548,257263,-2.9204399833,-8.3712898661,4.3704904789,1431
127175,190591,257285,-2.8677978860999995,-8.1846497033,4.3692940676,1432
127577,190695,257324,-2.9503502657999996,-8.2157563971,4.3034914461,1433
128054,190769,257392,-3.014956476,-8.2456666796,4.4063828179,1434
128101,190869,257439,-2.9072794589999997,-8.3210405915,4.3513478981,1435
128270,190905,257456,-2.9407789753999998,-8.2743805508,4.2687955184,1436
128529,190967,257501,-3.0257241777000004,-8.1463645417,4.3525443094,1437
128675,191034,257544,-2.8785655878,-8.291130309,4.2520457602,1438
128981,191129,257580,-2.8821548217,-8.2121671632,4.4231325760999995,1439
129358,191244,257651,-3.0209385325,-8.2002030502,4.3704904789,1440
129651,191322,257717,-3.0101708308,-8.281559018600001,4.342973019,1441
130047,191461,257779,-2.9336005076,-8.207381518,4.3238304382,1442
130311,191569,257856,-2.8881368781999996,-8.1762748242,4.2532421715,1443
130521,191661,257929,-2.8378876036,-8.3007015994,4.3010986235,1444
131089,191761,257966,-2.9455646206,-8.281559018600001,4.283152454,1445
131198,191834,258009,-2.8534409504999996,-8.1655071225,4.242474469799999,1446
130539,191681,257853,-2.8773691765,-8.364111398299999,4.2915273330999995,1447
129673,191296,257658,-2.8857440556,-8.373682688699999,4.259224228,1448
128877,190977,257556,-2.8869404668999996,-8.2456666796,4.3345981399,1449
128699,190867,257485,-2.8091737324,-8.2480595022,4.2041893082,1450
128745,190840,257500,-2.823530668,-8.2456666796,4.223331889,1451
128820,190852,257477,-2.9300112737000004,-8.3054872446,4.2675991071,1452
129134,190918,257569,-2.8462624827,-8.2157563971,4.2903309218,1453
129561,191044,257631,-2.9156543381000004,-8.262416437799999,4.242474469799999,1454
129751,191090,257660,-2.775674216,-8.2085779293,4.3561335433,1455
129794,191179,257649,-2.7984060307000003,-8.185846114599999,4.3142591478000005,1456
129916,191209,257725,-2.7505495787000003,-8.2456666796,4.3286160834,1457
130245,191281,257757,-2.8965117573,-8.4239319633,4.242474469799999,1458
130592,191390,257788,-2.823530668,-8.1798640581,4.3716868902,1459
130781,191512,257871,-2.6703900216,-8.2480595022,4.382454591899999,1460
131259,191591,257944,-2.8582265956999997,-8.2863446638,4.4362931003999995,1461
131422,191702,258020,-2.6787649007,-8.0733834524,4.2388852359,1462
131698,191830,258096,-2.8725835312999997,-8.2061851067,4.2053857195,1463
132120,191908,258174,-2.8654050635,-8.2923267203,4.2640098732,1464
132232,192036,258244,-2.9024938138,-8.3318082932,4.3573299546,1465
132534,192091,258236,-2.7864419177,-8.3844503904,4.295116567,1466
132195,192028,258154,-2.8366911923,-8.2959159542,4.3046878574,1467
131232,191669,257939,-2.7816562725,-8.3557365192,4.2759739861999995,1468
130546,191361,257809,-2.7589244578,-8.291130309,4.2065821308,1469
130362,191274,257727,-2.8761727652,-8.3784683339,4.3848474145,1470
130500,191266,257791,-2.8426732488,-8.2384882118,4.2041893082,1471
130714,191299,257851,-2.8642086522,-8.3413795836,4.2520457602,1472
131189,191379,257855,-2.7888347403,-8.279166196,4.3094735026,1473
131514,191507,257966,-2.8785655878,-8.2444702683,4.2317067681000005,1474
131752,191588,257989,-2.7601208691,-8.2887374864,4.2137605985999995,1475
131750,191607,258014,-2.7625136916999997,-8.1523465982,4.3334017286,1476
132079,191654,258068,-2.8773691765,-8.2289169214,4.2041893082,1477
132298,191719,258083,-2.9862426048,-8.3078800672,4.2305103568,1478
132660,191833,258161,-2.7672993369,-8.2348989779,4.259224228,1479
132874,191947,258196,-2.8857440556,-8.279166196,4.2903309218,1480
133265,192114,258271,-3.0927232105,-8.280362607299999,4.2807596314,1481
133438,192178,258326,-2.9180471607,-8.4215391407,4.2161534212,1482
133863,192296,258417,-2.7924239742,-8.1678999451,4.2149570099,1483
134060,192372,258481,-2.9324040963,-8.2289169214,4.3238304382,1484
134417,192460,258511,-3.1238299043,-8.3485580514,4.2484565263,1485
134627,192531,258576,-2.9742784918,-8.3593257531,4.2209390664,1486
134055,192393,258467,-2.8295127245,-8.2887374864,4.211367776,1487
132740,192023,258225,-2.8462624827,-8.2504523248,4.3800617693,1488
131841,191676,258017,-2.8558337731,-8.315058535,4.2209390664,1489
131503,191553,258002,-2.8749763539,-8.3198441802,4.2161534212,1490
131607,191500,258022,-2.823530668,-8.1966138163,4.2329031794,1491
131594,191534,258033,-2.9958138952,-8.2145599858,4.2652062845000005,1492
131932,191576,258091,-3.038884702,-8.3054872446,4.2999022122,1493
132231,191673,258112,-3.0101708308,-8.3497544627,4.3465622529,1494
132370,191735,258218,-2.8414768375,-8.2959159542,4.146761565799999,1495
132515,191793,258258,-2.9479574432,-8.1930245824,4.3345981399,1496
132723,191858,258270,-2.8809584104000003,-8.2504523248,4.3238304382,1497
132891,191924,258311,-2.8283163132,-8.2863446638,4.2329031794,1498
133056,192043,258421,-3.0185457098999997,-8.2743805508,4.3704904789,1499
133343,192116,258421,-2.9623143788,-8.2588272039,4.259224228,1500
133598,192227,258453,-2.8785655878,-8.279166196,4.237688824599999,1501
133955,192373,258503,-3.0699913958000002,-8.3784683339,4.3154555591,1502
134258,192472,258612,-2.9766713144,-8.3138621237,4.3357945512,1503
134394,192578,258618,-3.1609186546,-8.2923267203,4.3118663252,1504
134723,192672,258726,-2.9371897415,-8.2145599858,4.235296002,1505
134879,192777,258738,-3.1262227269,-8.280362607299999,4.366901245,1506
135132,192848,258785,-2.9575287336000002,-8.4095750277,4.2891345105,1507
134638,192714,258679,-2.9479574432,-8.1056865575,4.3393837851,1508
133197,192339,258453,-2.9647072014,-8.1846497033,4.2687955184,1509
132160,191943,258269,-2.8977081686,-8.2205420423,4.3166519704,1510
131378,191771,258164,-2.9563323222999998,-8.2887374864,4.1814574935,1511
131178,191731,258173,-2.9096722816000002,-8.1391860739,4.2568314054,1512
131086,191797,258156,-2.9024938138,-8.2181492197,4.3645084224,1513
131187,191778,258224,-2.7984060307000003,-8.3377903497,4.2963129783,1514
131600,191902,258239,-2.7792634499,-8.2995051881,4.295116567,1515
131671,191967,258371,-2.8414768375,-8.3007015994,4.2771703975,1516
131659,191983,258301,-2.8247270792999997,-8.2576307926,4.2675991071,1517
131744,192015,258354,-2.8594230069999997,-8.2516487361,4.1862431387,1518
